,condition,correct,correct_response,exp_stage,key_press,possible_responses,rt,stim_color,stim_word,trial_type,worker_id
stroop_0_4,incongruent,0.0,66.0,practice,71.0,"[66, 71, 82]",1339,blue,red,poldrack-categorize,s002
stroop_0_6,congruent,0.0,66.0,practice,71.0,"[66, 71, 82]",757,blue,blue,poldrack-categorize,s002
stroop_0_8,congruent,1.0,71.0,practice,71.0,"[66, 71, 82]",1086,green,green,poldrack-categorize,s002
stroop_0_10,congruent,1.0,82.0,practice,82.0,"[66, 71, 82]",633,red,red,poldrack-categorize,s002
stroop_0_12,congruent,1.0,66.0,practice,66.0,"[66, 71, 82]",983,blue,blue,poldrack-categorize,s002
stroop_0_14,congruent,1.0,66.0,practice,66.0,"[66, 71, 82]",682,blue,blue,poldrack-categorize,s002
stroop_0_16,incongruent,0.0,71.0,practice,82.0,"[66, 71, 82]",1175,green,red,poldrack-categorize,s002
stroop_0_18,congruent,1.0,71.0,practice,71.0,"[66, 71, 82]",1140,green,green,poldrack-categorize,s002
stroop_0_20,congruent,0.0,82.0,practice,-1.0,"[66, 71, 82]",-1,red,red,poldrack-categorize,s002
stroop_0_22,incongruent,0.0,82.0,practice,-1.0,"[66, 71, 82]",-1,red,blue,poldrack-categorize,s002
stroop_0_24,congruent,1.0,82.0,practice,82.0,"[66, 71, 82]",771,red,red,poldrack-categorize,s002
stroop_0_26,incongruent,0.0,66.0,practice,71.0,"[66, 71, 82]",662,blue,green,poldrack-categorize,s002
stroop_0_28,incongruent,1.0,82.0,practice,82.0,"[66, 71, 82]",1334,red,blue,poldrack-categorize,s002
stroop_0_30,congruent,1.0,71.0,practice,71.0,"[66, 71, 82]",652,green,green,poldrack-categorize,s002
stroop_0_32,incongruent,1.0,66.0,practice,66.0,"[66, 71, 82]",761,blue,red,poldrack-categorize,s002
stroop_0_34,congruent,1.0,71.0,practice,71.0,"[66, 71, 82]",623,green,green,poldrack-categorize,s002
stroop_0_36,incongruent,1.0,71.0,practice,71.0,"[66, 71, 82]",1086,green,blue,poldrack-categorize,s002
stroop_0_38,congruent,1.0,82.0,practice,82.0,"[66, 71, 82]",682,red,red,poldrack-categorize,s002
stroop_0_40,incongruent,1.0,66.0,practice,66.0,"[66, 71, 82]",805,blue,green,poldrack-categorize,s002
stroop_0_42,congruent,1.0,66.0,practice,66.0,"[66, 71, 82]",582,blue,blue,poldrack-categorize,s002
stroop_0_44,incongruent,1.0,71.0,practice,71.0,"[66, 71, 82]",902,green,red,poldrack-categorize,s002
stroop_0_46,incongruent,1.0,71.0,practice,71.0,"[66, 71, 82]",782,green,blue,poldrack-categorize,s002
stroop_0_48,incongruent,1.0,82.0,practice,82.0,"[66, 71, 82]",710,red,green,poldrack-categorize,s002
stroop_0_50,incongruent,1.0,82.0,practice,82.0,"[66, 71, 82]",673,red,green,poldrack-categorize,s002
stroop_0_53,congruent,1.0,82.0,test,82.0,"[66, 71, 82]",789,red,red,poldrack-categorize,s002
stroop_0_55,congruent,1.0,66.0,test,66.0,"[66, 71, 82]",822,blue,blue,poldrack-categorize,s002
stroop_0_57,incongruent,1.0,82.0,test,82.0,"[66, 71, 82]",1095,red,blue,poldrack-categorize,s002
stroop_0_59,incongruent,1.0,71.0,test,71.0,"[66, 71, 82]",682,green,blue,poldrack-categorize,s002
stroop_0_61,incongruent,1.0,71.0,test,71.0,"[66, 71, 82]",821,green,red,poldrack-categorize,s002
stroop_0_63,congruent,1.0,82.0,test,82.0,"[66, 71, 82]",552,red,red,poldrack-categorize,s002
stroop_0_65,incongruent,1.0,66.0,test,66.0,"[66, 71, 82]",532,blue,green,poldrack-categorize,s002
stroop_0_67,incongruent,1.0,71.0,test,71.0,"[66, 71, 82]",942,green,red,poldrack-categorize,s002
stroop_0_69,congruent,1.0,82.0,test,82.0,"[66, 71, 82]",772,red,red,poldrack-categorize,s002
stroop_0_71,congruent,1.0,82.0,test,82.0,"[66, 71, 82]",612,red,red,poldrack-categorize,s002
stroop_0_73,incongruent,1.0,82.0,test,82.0,"[66, 71, 82]",1011,red,blue,poldrack-categorize,s002
stroop_0_75,congruent,1.0,66.0,test,66.0,"[66, 71, 82]",1434,blue,blue,poldrack-categorize,s002
stroop_0_77,congruent,1.0,82.0,test,82.0,"[66, 71, 82]",591,red,red,poldrack-categorize,s002
stroop_0_79,incongruent,1.0,82.0,test,82.0,"[66, 71, 82]",942,red,green,poldrack-categorize,s002
stroop_0_81,congruent,1.0,82.0,test,82.0,"[66, 71, 82]",598,red,red,poldrack-categorize,s002
stroop_0_83,congruent,1.0,66.0,test,66.0,"[66, 71, 82]",560,blue,blue,poldrack-categorize,s002
stroop_0_85,congruent,1.0,82.0,test,82.0,"[66, 71, 82]",942,red,red,poldrack-categorize,s002
stroop_0_87,congruent,1.0,82.0,test,82.0,"[66, 71, 82]",592,red,red,poldrack-categorize,s002
stroop_0_89,congruent,1.0,71.0,test,71.0,"[66, 71, 82]",422,green,green,poldrack-categorize,s002
stroop_0_91,congruent,1.0,71.0,test,71.0,"[66, 71, 82]",460,green,green,poldrack-categorize,s002
stroop_0_93,congruent,1.0,71.0,test,71.0,"[66, 71, 82]",510,green,green,poldrack-categorize,s002
stroop_0_95,congruent,1.0,71.0,test,71.0,"[66, 71, 82]",1021,green,green,poldrack-categorize,s002
stroop_0_97,incongruent,1.0,66.0,test,66.0,"[66, 71, 82]",602,blue,green,poldrack-categorize,s002
stroop_0_99,incongruent,1.0,71.0,test,71.0,"[66, 71, 82]",1041,green,red,poldrack-categorize,s002
stroop_0_101,incongruent,1.0,66.0,test,66.0,"[66, 71, 82]",710,blue,green,poldrack-categorize,s002
stroop_0_103,incongruent,1.0,71.0,test,71.0,"[66, 71, 82]",916,green,red,poldrack-categorize,s002
stroop_0_105,incongruent,1.0,82.0,test,82.0,"[66, 71, 82]",732,red,blue,poldrack-categorize,s002
stroop_0_107,congruent,1.0,71.0,test,71.0,"[66, 71, 82]",631,green,green,poldrack-categorize,s002
stroop_0_109,congruent,1.0,71.0,test,71.0,"[66, 71, 82]",721,green,green,poldrack-categorize,s002
stroop_0_111,incongruent,1.0,66.0,test,66.0,"[66, 71, 82]",779,blue,red,poldrack-categorize,s002
stroop_0_113,incongruent,1.0,71.0,test,71.0,"[66, 71, 82]",962,green,red,poldrack-categorize,s002
stroop_0_115,congruent,1.0,82.0,test,82.0,"[66, 71, 82]",680,red,red,poldrack-categorize,s002
stroop_0_117,incongruent,1.0,82.0,test,82.0,"[66, 71, 82]",781,red,blue,poldrack-categorize,s002
stroop_0_119,congruent,1.0,82.0,test,82.0,"[66, 71, 82]",613,red,red,poldrack-categorize,s002
stroop_0_121,incongruent,0.0,82.0,test,-1.0,"[66, 71, 82]",-1,red,blue,poldrack-categorize,s002
stroop_0_123,congruent,1.0,71.0,test,71.0,"[66, 71, 82]",722,green,green,poldrack-categorize,s002
stroop_0_125,congruent,1.0,66.0,test,66.0,"[66, 71, 82]",582,blue,blue,poldrack-categorize,s002
stroop_0_127,congruent,1.0,71.0,test,71.0,"[66, 71, 82]",459,green,green,poldrack-categorize,s002
stroop_0_129,incongruent,1.0,66.0,test,66.0,"[66, 71, 82]",882,blue,red,poldrack-categorize,s002
stroop_0_131,incongruent,1.0,82.0,test,82.0,"[66, 71, 82]",585,red,green,poldrack-categorize,s002
stroop_0_133,congruent,1.0,71.0,test,71.0,"[66, 71, 82]",562,green,green,poldrack-categorize,s002
stroop_0_135,incongruent,1.0,71.0,test,71.0,"[66, 71, 82]",953,green,blue,poldrack-categorize,s002
stroop_0_137,congruent,1.0,66.0,test,66.0,"[66, 71, 82]",552,blue,blue,poldrack-categorize,s002
stroop_0_139,congruent,1.0,82.0,test,82.0,"[66, 71, 82]",471,red,red,poldrack-categorize,s002
stroop_0_141,congruent,0.0,71.0,test,66.0,"[66, 71, 82]",632,green,green,poldrack-categorize,s002
stroop_0_143,congruent,1.0,71.0,test,71.0,"[66, 71, 82]",780,green,green,poldrack-categorize,s002
stroop_0_145,incongruent,1.0,71.0,test,71.0,"[66, 71, 82]",923,green,blue,poldrack-categorize,s002
stroop_0_147,incongruent,1.0,66.0,test,66.0,"[66, 71, 82]",931,blue,red,poldrack-categorize,s002
stroop_0_149,incongruent,1.0,82.0,test,82.0,"[66, 71, 82]",502,red,green,poldrack-categorize,s002
stroop_0_151,congruent,1.0,82.0,test,82.0,"[66, 71, 82]",834,red,red,poldrack-categorize,s002
stroop_0_153,congruent,1.0,66.0,test,66.0,"[66, 71, 82]",942,blue,blue,poldrack-categorize,s002
stroop_0_155,congruent,1.0,82.0,test,82.0,"[66, 71, 82]",660,red,red,poldrack-categorize,s002
stroop_0_157,incongruent,1.0,82.0,test,82.0,"[66, 71, 82]",781,red,green,poldrack-categorize,s002
stroop_0_159,incongruent,1.0,71.0,test,71.0,"[66, 71, 82]",1032,green,red,poldrack-categorize,s002
stroop_0_161,incongruent,1.0,66.0,test,66.0,"[66, 71, 82]",792,blue,green,poldrack-categorize,s002
stroop_0_163,congruent,1.0,66.0,test,66.0,"[66, 71, 82]",660,blue,blue,poldrack-categorize,s002
stroop_0_165,incongruent,1.0,71.0,test,71.0,"[66, 71, 82]",940,green,blue,poldrack-categorize,s002
stroop_0_167,incongruent,1.0,71.0,test,71.0,"[66, 71, 82]",851,green,blue,poldrack-categorize,s002
stroop_0_169,congruent,1.0,66.0,test,66.0,"[66, 71, 82]",654,blue,blue,poldrack-categorize,s002
stroop_0_171,congruent,1.0,66.0,test,66.0,"[66, 71, 82]",612,blue,blue,poldrack-categorize,s002
stroop_0_173,incongruent,1.0,71.0,test,71.0,"[66, 71, 82]",740,green,blue,poldrack-categorize,s002
stroop_0_175,incongruent,1.0,82.0,test,82.0,"[66, 71, 82]",660,red,green,poldrack-categorize,s002
stroop_0_177,incongruent,1.0,66.0,test,66.0,"[66, 71, 82]",991,blue,red,poldrack-categorize,s002
stroop_0_179,incongruent,1.0,66.0,test,66.0,"[66, 71, 82]",921,blue,red,poldrack-categorize,s002
stroop_0_181,incongruent,1.0,82.0,test,82.0,"[66, 71, 82]",732,red,green,poldrack-categorize,s002
stroop_0_183,congruent,1.0,71.0,test,71.0,"[66, 71, 82]",642,green,green,poldrack-categorize,s002
stroop_0_185,congruent,1.0,82.0,test,82.0,"[66, 71, 82]",625,red,red,poldrack-categorize,s002
stroop_0_187,congruent,1.0,66.0,test,66.0,"[66, 71, 82]",643,blue,blue,poldrack-categorize,s002
stroop_0_189,incongruent,1.0,66.0,test,66.0,"[66, 71, 82]",592,blue,red,poldrack-categorize,s002
stroop_0_191,congruent,1.0,66.0,test,66.0,"[66, 71, 82]",662,blue,blue,poldrack-categorize,s002
stroop_0_193,incongruent,1.0,66.0,test,66.0,"[66, 71, 82]",823,blue,red,poldrack-categorize,s002
stroop_0_195,incongruent,1.0,71.0,test,71.0,"[66, 71, 82]",660,green,blue,poldrack-categorize,s002
stroop_0_197,incongruent,1.0,71.0,test,71.0,"[66, 71, 82]",831,green,red,poldrack-categorize,s002
stroop_0_199,incongruent,1.0,82.0,test,82.0,"[66, 71, 82]",702,red,blue,poldrack-categorize,s002
stroop_0_201,congruent,1.0,66.0,test,66.0,"[66, 71, 82]",712,blue,blue,poldrack-categorize,s002
stroop_0_203,incongruent,1.0,82.0,test,82.0,"[66, 71, 82]",672,red,green,poldrack-categorize,s002
stroop_0_205,incongruent,1.0,66.0,test,66.0,"[66, 71, 82]",706,blue,green,poldrack-categorize,s002
stroop_0_207,congruent,1.0,66.0,test,66.0,"[66, 71, 82]",613,blue,blue,poldrack-categorize,s002
stroop_0_209,incongruent,1.0,82.0,test,82.0,"[66, 71, 82]",744,red,blue,poldrack-categorize,s002
stroop_0_211,incongruent,1.0,71.0,test,71.0,"[66, 71, 82]",822,green,blue,poldrack-categorize,s002
stroop_0_213,congruent,1.0,71.0,test,71.0,"[66, 71, 82]",1034,green,green,poldrack-categorize,s002
stroop_0_215,incongruent,1.0,82.0,test,82.0,"[66, 71, 82]",780,red,blue,poldrack-categorize,s002
stroop_0_217,incongruent,1.0,66.0,test,66.0,"[66, 71, 82]",720,blue,red,poldrack-categorize,s002
stroop_0_219,congruent,1.0,71.0,test,71.0,"[66, 71, 82]",786,green,green,poldrack-categorize,s002
stroop_0_221,congruent,1.0,82.0,test,82.0,"[66, 71, 82]",572,red,red,poldrack-categorize,s002
stroop_0_223,incongruent,1.0,82.0,test,82.0,"[66, 71, 82]",580,red,green,poldrack-categorize,s002
stroop_0_225,incongruent,1.0,66.0,test,66.0,"[66, 71, 82]",723,blue,green,poldrack-categorize,s002
stroop_0_227,incongruent,1.0,71.0,test,71.0,"[66, 71, 82]",872,green,red,poldrack-categorize,s002
stroop_0_229,incongruent,1.0,66.0,test,66.0,"[66, 71, 82]",698,blue,green,poldrack-categorize,s002
stroop_0_231,congruent,1.0,66.0,test,66.0,"[66, 71, 82]",630,blue,blue,poldrack-categorize,s002
stroop_0_233,congruent,1.0,71.0,test,71.0,"[66, 71, 82]",613,green,green,poldrack-categorize,s002
stroop_0_235,congruent,1.0,66.0,test,66.0,"[66, 71, 82]",673,blue,blue,poldrack-categorize,s002
stroop_0_237,incongruent,1.0,66.0,test,66.0,"[66, 71, 82]",782,blue,green,poldrack-categorize,s002
stroop_0_239,congruent,1.0,71.0,test,71.0,"[66, 71, 82]",742,green,green,poldrack-categorize,s002
stroop_0_241,congruent,1.0,82.0,test,82.0,"[66, 71, 82]",584,red,red,poldrack-categorize,s002
stroop_0_243,congruent,1.0,66.0,test,66.0,"[66, 71, 82]",641,blue,blue,poldrack-categorize,s002
stroop_1_4,incongruent,0.0,71.0,practice,-1.0,"[66, 71, 82]",-1,green,red,poldrack-categorize,s005
stroop_1_6,congruent,1.0,66.0,practice,66.0,"[66, 71, 82]",913,blue,blue,poldrack-categorize,s005
stroop_1_8,incongruent,1.0,66.0,practice,66.0,"[66, 71, 82]",1050,blue,green,poldrack-categorize,s005
stroop_1_10,incongruent,1.0,71.0,practice,71.0,"[66, 71, 82]",1212,green,red,poldrack-categorize,s005
stroop_1_12,congruent,1.0,82.0,practice,82.0,"[66, 71, 82]",438,red,red,poldrack-categorize,s005
stroop_1_14,incongruent,1.0,66.0,practice,66.0,"[66, 71, 82]",466,blue,red,poldrack-categorize,s005
stroop_1_16,incongruent,1.0,82.0,practice,82.0,"[66, 71, 82]",438,red,green,poldrack-categorize,s005
stroop_1_18,congruent,1.0,66.0,practice,66.0,"[66, 71, 82]",511,blue,blue,poldrack-categorize,s005
stroop_1_20,congruent,1.0,82.0,practice,82.0,"[66, 71, 82]",572,red,red,poldrack-categorize,s005
stroop_1_22,incongruent,1.0,66.0,practice,66.0,"[66, 71, 82]",642,blue,red,poldrack-categorize,s005
stroop_1_24,congruent,1.0,82.0,practice,82.0,"[66, 71, 82]",530,red,red,poldrack-categorize,s005
stroop_1_26,congruent,1.0,71.0,practice,71.0,"[66, 71, 82]",453,green,green,poldrack-categorize,s005
stroop_1_28,congruent,1.0,71.0,practice,71.0,"[66, 71, 82]",483,green,green,poldrack-categorize,s005
stroop_1_30,incongruent,1.0,66.0,practice,66.0,"[66, 71, 82]",763,blue,green,poldrack-categorize,s005
stroop_1_32,incongruent,1.0,82.0,practice,82.0,"[66, 71, 82]",411,red,blue,poldrack-categorize,s005
stroop_1_34,congruent,1.0,71.0,practice,71.0,"[66, 71, 82]",562,green,green,poldrack-categorize,s005
stroop_1_36,congruent,1.0,66.0,practice,66.0,"[66, 71, 82]",546,blue,blue,poldrack-categorize,s005
stroop_1_38,congruent,1.0,82.0,practice,82.0,"[66, 71, 82]",458,red,red,poldrack-categorize,s005
stroop_1_40,incongruent,1.0,82.0,practice,82.0,"[66, 71, 82]",698,red,green,poldrack-categorize,s005
stroop_1_42,congruent,1.0,66.0,practice,66.0,"[66, 71, 82]",572,blue,blue,poldrack-categorize,s005
stroop_1_44,incongruent,1.0,82.0,practice,82.0,"[66, 71, 82]",769,red,blue,poldrack-categorize,s005
stroop_1_46,incongruent,1.0,71.0,practice,71.0,"[66, 71, 82]",855,green,blue,poldrack-categorize,s005
stroop_1_48,incongruent,1.0,71.0,practice,71.0,"[66, 71, 82]",542,green,blue,poldrack-categorize,s005
stroop_1_50,congruent,1.0,71.0,practice,71.0,"[66, 71, 82]",650,green,green,poldrack-categorize,s005
stroop_1_53,incongruent,1.0,82.0,test,82.0,"[66, 71, 82]",620,red,blue,poldrack-categorize,s005
stroop_1_55,congruent,1.0,82.0,test,82.0,"[66, 71, 82]",513,red,red,poldrack-categorize,s005
stroop_1_57,incongruent,1.0,71.0,test,71.0,"[66, 71, 82]",522,green,red,poldrack-categorize,s005
stroop_1_59,congruent,1.0,71.0,test,71.0,"[66, 71, 82]",633,green,green,poldrack-categorize,s005
stroop_1_61,congruent,1.0,82.0,test,82.0,"[66, 71, 82]",503,red,red,poldrack-categorize,s005
stroop_1_63,congruent,1.0,82.0,test,82.0,"[66, 71, 82]",630,red,red,poldrack-categorize,s005
stroop_1_65,congruent,1.0,71.0,test,71.0,"[66, 71, 82]",507,green,green,poldrack-categorize,s005
stroop_1_67,congruent,1.0,71.0,test,71.0,"[66, 71, 82]",619,green,green,poldrack-categorize,s005
stroop_1_69,congruent,1.0,71.0,test,71.0,"[66, 71, 82]",585,green,green,poldrack-categorize,s005
stroop_1_71,incongruent,1.0,66.0,test,66.0,"[66, 71, 82]",639,blue,green,poldrack-categorize,s005
stroop_1_73,congruent,1.0,71.0,test,71.0,"[66, 71, 82]",730,green,green,poldrack-categorize,s005
stroop_1_75,congruent,1.0,66.0,test,66.0,"[66, 71, 82]",537,blue,blue,poldrack-categorize,s005
stroop_1_77,congruent,1.0,82.0,test,82.0,"[66, 71, 82]",508,red,red,poldrack-categorize,s005
stroop_1_79,congruent,1.0,71.0,test,71.0,"[66, 71, 82]",491,green,green,poldrack-categorize,s005
stroop_1_81,incongruent,1.0,82.0,test,82.0,"[66, 71, 82]",702,red,blue,poldrack-categorize,s005
stroop_1_83,incongruent,1.0,82.0,test,82.0,"[66, 71, 82]",566,red,green,poldrack-categorize,s005
stroop_1_85,congruent,1.0,82.0,test,82.0,"[66, 71, 82]",535,red,red,poldrack-categorize,s005
stroop_1_87,congruent,1.0,66.0,test,66.0,"[66, 71, 82]",505,blue,blue,poldrack-categorize,s005
stroop_1_89,incongruent,1.0,82.0,test,82.0,"[66, 71, 82]",508,red,green,poldrack-categorize,s005
stroop_1_91,congruent,1.0,82.0,test,82.0,"[66, 71, 82]",585,red,red,poldrack-categorize,s005
stroop_1_93,incongruent,1.0,71.0,test,71.0,"[66, 71, 82]",665,green,blue,poldrack-categorize,s005
stroop_1_95,congruent,1.0,71.0,test,71.0,"[66, 71, 82]",495,green,green,poldrack-categorize,s005
stroop_1_97,incongruent,1.0,66.0,test,66.0,"[66, 71, 82]",395,blue,green,poldrack-categorize,s005
stroop_1_99,incongruent,1.0,66.0,test,66.0,"[66, 71, 82]",852,blue,red,poldrack-categorize,s005
stroop_1_101,incongruent,1.0,71.0,test,71.0,"[66, 71, 82]",635,green,blue,poldrack-categorize,s005
stroop_1_103,incongruent,1.0,71.0,test,71.0,"[66, 71, 82]",687,green,blue,poldrack-categorize,s005
stroop_1_105,incongruent,1.0,66.0,test,66.0,"[66, 71, 82]",362,blue,red,poldrack-categorize,s005
stroop_1_107,congruent,1.0,71.0,test,71.0,"[66, 71, 82]",553,green,green,poldrack-categorize,s005
stroop_1_109,congruent,1.0,66.0,test,66.0,"[66, 71, 82]",727,blue,blue,poldrack-categorize,s005
stroop_1_111,congruent,1.0,71.0,test,71.0,"[66, 71, 82]",636,green,green,poldrack-categorize,s005
stroop_1_113,incongruent,1.0,82.0,test,82.0,"[66, 71, 82]",478,red,blue,poldrack-categorize,s005
stroop_1_115,incongruent,1.0,66.0,test,66.0,"[66, 71, 82]",433,blue,red,poldrack-categorize,s005
stroop_1_117,congruent,1.0,82.0,test,82.0,"[66, 71, 82]",617,red,red,poldrack-categorize,s005
stroop_1_119,incongruent,1.0,66.0,test,66.0,"[66, 71, 82]",619,blue,green,poldrack-categorize,s005
stroop_1_121,congruent,1.0,66.0,test,66.0,"[66, 71, 82]",466,blue,blue,poldrack-categorize,s005
stroop_1_123,congruent,1.0,71.0,test,71.0,"[66, 71, 82]",494,green,green,poldrack-categorize,s005
stroop_1_125,congruent,1.0,82.0,test,82.0,"[66, 71, 82]",468,red,red,poldrack-categorize,s005
stroop_1_127,congruent,1.0,66.0,test,66.0,"[66, 71, 82]",484,blue,blue,poldrack-categorize,s005
stroop_1_129,congruent,1.0,82.0,test,82.0,"[66, 71, 82]",747,red,red,poldrack-categorize,s005
stroop_1_131,incongruent,1.0,71.0,test,71.0,"[66, 71, 82]",473,green,blue,poldrack-categorize,s005
stroop_1_133,incongruent,1.0,71.0,test,71.0,"[66, 71, 82]",619,green,blue,poldrack-categorize,s005
stroop_1_135,congruent,1.0,66.0,test,66.0,"[66, 71, 82]",501,blue,blue,poldrack-categorize,s005
stroop_1_137,congruent,1.0,66.0,test,66.0,"[66, 71, 82]",406,blue,blue,poldrack-categorize,s005
stroop_1_139,incongruent,1.0,66.0,test,66.0,"[66, 71, 82]",465,blue,red,poldrack-categorize,s005
stroop_1_141,incongruent,1.0,71.0,test,71.0,"[66, 71, 82]",523,green,blue,poldrack-categorize,s005
stroop_1_143,incongruent,1.0,66.0,test,66.0,"[66, 71, 82]",823,blue,green,poldrack-categorize,s005
stroop_1_145,incongruent,1.0,71.0,test,71.0,"[66, 71, 82]",590,green,red,poldrack-categorize,s005
stroop_1_147,congruent,1.0,66.0,test,66.0,"[66, 71, 82]",509,blue,blue,poldrack-categorize,s005
stroop_1_149,incongruent,1.0,66.0,test,66.0,"[66, 71, 82]",625,blue,green,poldrack-categorize,s005
stroop_1_151,congruent,1.0,82.0,test,82.0,"[66, 71, 82]",455,red,red,poldrack-categorize,s005
stroop_1_153,incongruent,1.0,66.0,test,66.0,"[66, 71, 82]",458,blue,green,poldrack-categorize,s005
stroop_1_155,congruent,1.0,82.0,test,82.0,"[66, 71, 82]",530,red,red,poldrack-categorize,s005
stroop_1_157,congruent,1.0,66.0,test,66.0,"[66, 71, 82]",559,blue,blue,poldrack-categorize,s005
stroop_1_159,incongruent,1.0,71.0,test,71.0,"[66, 71, 82]",866,green,red,poldrack-categorize,s005
stroop_1_161,incongruent,1.0,66.0,test,66.0,"[66, 71, 82]",483,blue,red,poldrack-categorize,s005
stroop_1_163,congruent,1.0,71.0,test,71.0,"[66, 71, 82]",572,green,green,poldrack-categorize,s005
stroop_1_165,congruent,1.0,66.0,test,66.0,"[66, 71, 82]",549,blue,blue,poldrack-categorize,s005
stroop_1_167,congruent,1.0,66.0,test,66.0,"[66, 71, 82]",656,blue,blue,poldrack-categorize,s005
stroop_1_169,incongruent,1.0,66.0,test,66.0,"[66, 71, 82]",696,blue,green,poldrack-categorize,s005
stroop_1_171,incongruent,1.0,82.0,test,82.0,"[66, 71, 82]",560,red,blue,poldrack-categorize,s005
stroop_1_173,incongruent,1.0,71.0,test,71.0,"[66, 71, 82]",470,green,blue,poldrack-categorize,s005
stroop_1_175,congruent,1.0,71.0,test,71.0,"[66, 71, 82]",505,green,green,poldrack-categorize,s005
stroop_1_177,congruent,1.0,71.0,test,71.0,"[66, 71, 82]",606,green,green,poldrack-categorize,s005
stroop_1_179,incongruent,1.0,71.0,test,71.0,"[66, 71, 82]",582,green,red,poldrack-categorize,s005
stroop_1_181,incongruent,1.0,82.0,test,82.0,"[66, 71, 82]",676,red,blue,poldrack-categorize,s005
stroop_1_183,incongruent,1.0,66.0,test,66.0,"[66, 71, 82]",568,blue,green,poldrack-categorize,s005
stroop_1_185,incongruent,1.0,82.0,test,82.0,"[66, 71, 82]",642,red,green,poldrack-categorize,s005
stroop_1_187,incongruent,1.0,66.0,test,66.0,"[66, 71, 82]",676,blue,red,poldrack-categorize,s005
stroop_1_189,congruent,1.0,82.0,test,82.0,"[66, 71, 82]",592,red,red,poldrack-categorize,s005
stroop_1_191,incongruent,1.0,82.0,test,82.0,"[66, 71, 82]",669,red,green,poldrack-categorize,s005
stroop_1_193,incongruent,1.0,71.0,test,71.0,"[66, 71, 82]",638,green,blue,poldrack-categorize,s005
stroop_1_195,incongruent,1.0,82.0,test,82.0,"[66, 71, 82]",614,red,green,poldrack-categorize,s005
stroop_1_197,incongruent,1.0,82.0,test,82.0,"[66, 71, 82]",703,red,blue,poldrack-categorize,s005
stroop_1_199,congruent,1.0,66.0,test,66.0,"[66, 71, 82]",437,blue,blue,poldrack-categorize,s005
stroop_1_201,congruent,1.0,66.0,test,66.0,"[66, 71, 82]",535,blue,blue,poldrack-categorize,s005
stroop_1_203,incongruent,1.0,66.0,test,66.0,"[66, 71, 82]",635,blue,red,poldrack-categorize,s005
stroop_1_205,incongruent,1.0,82.0,test,82.0,"[66, 71, 82]",494,red,green,poldrack-categorize,s005
stroop_1_207,incongruent,1.0,82.0,test,82.0,"[66, 71, 82]",520,red,blue,poldrack-categorize,s005
stroop_1_209,congruent,1.0,71.0,test,71.0,"[66, 71, 82]",576,green,green,poldrack-categorize,s005
stroop_1_211,incongruent,1.0,82.0,test,82.0,"[66, 71, 82]",576,red,green,poldrack-categorize,s005
stroop_1_213,incongruent,1.0,71.0,test,71.0,"[66, 71, 82]",736,green,red,poldrack-categorize,s005
stroop_1_215,incongruent,1.0,71.0,test,71.0,"[66, 71, 82]",580,green,red,poldrack-categorize,s005
stroop_1_217,incongruent,1.0,82.0,test,82.0,"[66, 71, 82]",559,red,blue,poldrack-categorize,s005
stroop_1_219,congruent,1.0,66.0,test,66.0,"[66, 71, 82]",509,blue,blue,poldrack-categorize,s005
stroop_1_221,incongruent,1.0,71.0,test,71.0,"[66, 71, 82]",678,green,red,poldrack-categorize,s005
stroop_1_223,congruent,1.0,71.0,test,71.0,"[66, 71, 82]",596,green,green,poldrack-categorize,s005
stroop_1_225,congruent,1.0,66.0,test,66.0,"[66, 71, 82]",522,blue,blue,poldrack-categorize,s005
stroop_1_227,congruent,1.0,71.0,test,71.0,"[66, 71, 82]",587,green,green,poldrack-categorize,s005
stroop_1_229,incongruent,1.0,82.0,test,82.0,"[66, 71, 82]",549,red,green,poldrack-categorize,s005
stroop_1_231,congruent,1.0,82.0,test,82.0,"[66, 71, 82]",551,red,red,poldrack-categorize,s005
stroop_1_233,congruent,1.0,82.0,test,82.0,"[66, 71, 82]",602,red,red,poldrack-categorize,s005
stroop_1_235,incongruent,1.0,71.0,test,71.0,"[66, 71, 82]",630,green,red,poldrack-categorize,s005
stroop_1_237,congruent,1.0,82.0,test,82.0,"[66, 71, 82]",618,red,red,poldrack-categorize,s005
stroop_1_239,congruent,1.0,82.0,test,82.0,"[66, 71, 82]",618,red,red,poldrack-categorize,s005
stroop_1_241,congruent,1.0,66.0,test,66.0,"[66, 71, 82]",496,blue,blue,poldrack-categorize,s005
stroop_1_243,incongruent,1.0,66.0,test,66.0,"[66, 71, 82]",572,blue,red,poldrack-categorize,s005
stroop_2_4,congruent,1.0,82.0,practice,82.0,"[66, 71, 82]",1265,red,red,poldrack-categorize,s006
stroop_2_6,congruent,1.0,66.0,practice,66.0,"[66, 71, 82]",1453,blue,blue,poldrack-categorize,s006
stroop_2_8,incongruent,1.0,66.0,practice,66.0,"[66, 71, 82]",1367,blue,green,poldrack-categorize,s006
stroop_2_10,incongruent,0.0,71.0,practice,-1.0,"[66, 71, 82]",-1,green,red,poldrack-categorize,s006
stroop_2_12,congruent,1.0,66.0,practice,66.0,"[66, 71, 82]",813,blue,blue,poldrack-categorize,s006
stroop_2_14,incongruent,1.0,82.0,practice,82.0,"[66, 71, 82]",773,red,green,poldrack-categorize,s006
stroop_2_16,incongruent,1.0,66.0,practice,66.0,"[66, 71, 82]",689,blue,green,poldrack-categorize,s006
stroop_2_18,congruent,1.0,71.0,practice,71.0,"[66, 71, 82]",948,green,green,poldrack-categorize,s006
stroop_2_20,incongruent,0.0,71.0,practice,82.0,"[66, 71, 82]",695,green,red,poldrack-categorize,s006
stroop_2_22,incongruent,1.0,66.0,practice,66.0,"[66, 71, 82]",710,blue,red,poldrack-categorize,s006
stroop_2_24,incongruent,1.0,82.0,practice,82.0,"[66, 71, 82]",806,red,blue,poldrack-categorize,s006
stroop_2_26,incongruent,1.0,82.0,practice,82.0,"[66, 71, 82]",666,red,blue,poldrack-categorize,s006
stroop_2_28,incongruent,0.0,71.0,practice,66.0,"[66, 71, 82]",850,green,blue,poldrack-categorize,s006
stroop_2_30,incongruent,1.0,71.0,practice,71.0,"[66, 71, 82]",786,green,blue,poldrack-categorize,s006
stroop_2_32,congruent,1.0,66.0,practice,66.0,"[66, 71, 82]",967,blue,blue,poldrack-categorize,s006
stroop_2_34,incongruent,1.0,66.0,practice,66.0,"[66, 71, 82]",484,blue,red,poldrack-categorize,s006
stroop_2_36,congruent,1.0,66.0,practice,66.0,"[66, 71, 82]",519,blue,blue,poldrack-categorize,s006
stroop_2_38,incongruent,1.0,82.0,practice,82.0,"[66, 71, 82]",863,red,green,poldrack-categorize,s006
stroop_2_40,congruent,0.0,71.0,practice,66.0,"[66, 71, 82]",820,green,green,poldrack-categorize,s006
stroop_2_42,congruent,1.0,82.0,practice,82.0,"[66, 71, 82]",857,red,red,poldrack-categorize,s006
stroop_2_44,congruent,0.0,71.0,practice,66.0,"[66, 71, 82]",1132,green,green,poldrack-categorize,s006
stroop_2_46,congruent,1.0,82.0,practice,82.0,"[66, 71, 82]",1103,red,red,poldrack-categorize,s006
stroop_2_48,congruent,1.0,82.0,practice,82.0,"[66, 71, 82]",623,red,red,poldrack-categorize,s006
stroop_2_50,congruent,1.0,71.0,practice,71.0,"[66, 71, 82]",689,green,green,poldrack-categorize,s006
stroop_2_53,incongruent,1.0,66.0,test,66.0,"[66, 71, 82]",701,blue,green,poldrack-categorize,s006
stroop_2_55,congruent,1.0,82.0,test,82.0,"[66, 71, 82]",602,red,red,poldrack-categorize,s006
stroop_2_57,incongruent,1.0,71.0,test,71.0,"[66, 71, 82]",494,green,red,poldrack-categorize,s006
stroop_2_59,incongruent,1.0,82.0,test,82.0,"[66, 71, 82]",732,red,blue,poldrack-categorize,s006
stroop_2_61,incongruent,1.0,66.0,test,66.0,"[66, 71, 82]",699,blue,green,poldrack-categorize,s006
stroop_2_63,incongruent,0.0,71.0,test,82.0,"[66, 71, 82]",645,green,red,poldrack-categorize,s006
stroop_2_65,congruent,1.0,66.0,test,66.0,"[66, 71, 82]",828,blue,blue,poldrack-categorize,s006
stroop_2_67,incongruent,1.0,66.0,test,66.0,"[66, 71, 82]",797,blue,red,poldrack-categorize,s006
stroop_2_69,incongruent,1.0,82.0,test,82.0,"[66, 71, 82]",630,red,green,poldrack-categorize,s006
stroop_2_71,incongruent,1.0,66.0,test,66.0,"[66, 71, 82]",946,blue,green,poldrack-categorize,s006
stroop_2_73,incongruent,1.0,71.0,test,71.0,"[66, 71, 82]",853,green,blue,poldrack-categorize,s006
stroop_2_75,congruent,1.0,66.0,test,66.0,"[66, 71, 82]",985,blue,blue,poldrack-categorize,s006
stroop_2_77,incongruent,1.0,66.0,test,66.0,"[66, 71, 82]",627,blue,red,poldrack-categorize,s006
stroop_2_79,incongruent,1.0,82.0,test,82.0,"[66, 71, 82]",642,red,green,poldrack-categorize,s006
stroop_2_81,incongruent,1.0,66.0,test,66.0,"[66, 71, 82]",688,blue,green,poldrack-categorize,s006
stroop_2_83,incongruent,1.0,71.0,test,71.0,"[66, 71, 82]",810,green,blue,poldrack-categorize,s006
stroop_2_85,congruent,1.0,71.0,test,71.0,"[66, 71, 82]",1134,green,green,poldrack-categorize,s006
stroop_2_87,incongruent,0.0,82.0,test,-1.0,"[66, 71, 82]",-1,red,blue,poldrack-categorize,s006
stroop_2_89,congruent,1.0,71.0,test,71.0,"[66, 71, 82]",965,green,green,poldrack-categorize,s006
stroop_2_91,incongruent,1.0,66.0,test,66.0,"[66, 71, 82]",984,blue,green,poldrack-categorize,s006
stroop_2_93,incongruent,0.0,82.0,test,-1.0,"[66, 71, 82]",-1,red,green,poldrack-categorize,s006
stroop_2_95,congruent,1.0,82.0,test,82.0,"[66, 71, 82]",496,red,red,poldrack-categorize,s006
stroop_2_97,incongruent,1.0,66.0,test,66.0,"[66, 71, 82]",636,blue,green,poldrack-categorize,s006
stroop_2_99,congruent,1.0,66.0,test,66.0,"[66, 71, 82]",828,blue,blue,poldrack-categorize,s006
stroop_2_101,incongruent,1.0,71.0,test,71.0,"[66, 71, 82]",813,green,blue,poldrack-categorize,s006
stroop_2_103,congruent,1.0,82.0,test,82.0,"[66, 71, 82]",647,red,red,poldrack-categorize,s006
stroop_2_105,incongruent,1.0,71.0,test,71.0,"[66, 71, 82]",881,green,red,poldrack-categorize,s006
stroop_2_107,congruent,1.0,66.0,test,66.0,"[66, 71, 82]",585,blue,blue,poldrack-categorize,s006
stroop_2_109,incongruent,1.0,71.0,test,71.0,"[66, 71, 82]",775,green,red,poldrack-categorize,s006
stroop_2_111,incongruent,1.0,82.0,test,82.0,"[66, 71, 82]",650,red,green,poldrack-categorize,s006
stroop_2_113,incongruent,1.0,82.0,test,82.0,"[66, 71, 82]",894,red,blue,poldrack-categorize,s006
stroop_2_115,incongruent,1.0,66.0,test,66.0,"[66, 71, 82]",595,blue,red,poldrack-categorize,s006
stroop_2_117,congruent,1.0,71.0,test,71.0,"[66, 71, 82]",652,green,green,poldrack-categorize,s006
stroop_2_119,incongruent,1.0,71.0,test,71.0,"[66, 71, 82]",630,green,red,poldrack-categorize,s006
stroop_2_121,congruent,1.0,66.0,test,66.0,"[66, 71, 82]",542,blue,blue,poldrack-categorize,s006
stroop_2_123,congruent,1.0,71.0,test,71.0,"[66, 71, 82]",600,green,green,poldrack-categorize,s006
stroop_2_125,incongruent,0.0,82.0,test,66.0,"[66, 71, 82]",869,red,blue,poldrack-categorize,s006
stroop_2_127,incongruent,1.0,71.0,test,71.0,"[66, 71, 82]",911,green,blue,poldrack-categorize,s006
stroop_2_129,congruent,1.0,66.0,test,66.0,"[66, 71, 82]",1249,blue,blue,poldrack-categorize,s006
stroop_2_131,incongruent,1.0,66.0,test,66.0,"[66, 71, 82]",653,blue,green,poldrack-categorize,s006
stroop_2_133,congruent,1.0,66.0,test,66.0,"[66, 71, 82]",453,blue,blue,poldrack-categorize,s006
stroop_2_135,congruent,1.0,66.0,test,66.0,"[66, 71, 82]",451,blue,blue,poldrack-categorize,s006
stroop_2_137,congruent,0.0,71.0,test,82.0,"[66, 71, 82]",927,green,green,poldrack-categorize,s006
stroop_2_139,incongruent,1.0,71.0,test,71.0,"[66, 71, 82]",929,green,blue,poldrack-categorize,s006
stroop_2_141,congruent,1.0,66.0,test,66.0,"[66, 71, 82]",676,blue,blue,poldrack-categorize,s006
stroop_2_143,congruent,1.0,82.0,test,82.0,"[66, 71, 82]",898,red,red,poldrack-categorize,s006
stroop_2_145,congruent,1.0,71.0,test,71.0,"[66, 71, 82]",549,green,green,poldrack-categorize,s006
stroop_2_147,incongruent,1.0,71.0,test,71.0,"[66, 71, 82]",932,green,blue,poldrack-categorize,s006
stroop_2_149,congruent,1.0,82.0,test,82.0,"[66, 71, 82]",711,red,red,poldrack-categorize,s006
stroop_2_151,incongruent,1.0,66.0,test,66.0,"[66, 71, 82]",645,blue,red,poldrack-categorize,s006
stroop_2_153,congruent,1.0,82.0,test,82.0,"[66, 71, 82]",880,red,red,poldrack-categorize,s006
stroop_2_155,incongruent,1.0,82.0,test,82.0,"[66, 71, 82]",973,red,blue,poldrack-categorize,s006
stroop_2_157,congruent,1.0,66.0,test,66.0,"[66, 71, 82]",816,blue,blue,poldrack-categorize,s006
stroop_2_159,incongruent,1.0,71.0,test,71.0,"[66, 71, 82]",928,green,red,poldrack-categorize,s006
stroop_2_161,incongruent,1.0,66.0,test,66.0,"[66, 71, 82]",680,blue,green,poldrack-categorize,s006
stroop_2_163,incongruent,1.0,82.0,test,82.0,"[66, 71, 82]",650,red,green,poldrack-categorize,s006
stroop_2_165,incongruent,1.0,66.0,test,66.0,"[66, 71, 82]",988,blue,red,poldrack-categorize,s006
stroop_2_167,incongruent,1.0,71.0,test,71.0,"[66, 71, 82]",815,green,blue,poldrack-categorize,s006
stroop_2_169,incongruent,1.0,82.0,test,82.0,"[66, 71, 82]",840,red,green,poldrack-categorize,s006
stroop_2_171,incongruent,1.0,71.0,test,71.0,"[66, 71, 82]",701,green,red,poldrack-categorize,s006
stroop_2_173,congruent,1.0,71.0,test,71.0,"[66, 71, 82]",680,green,green,poldrack-categorize,s006
stroop_2_175,congruent,1.0,82.0,test,82.0,"[66, 71, 82]",787,red,red,poldrack-categorize,s006
stroop_2_177,incongruent,1.0,82.0,test,82.0,"[66, 71, 82]",1051,red,green,poldrack-categorize,s006
stroop_2_179,congruent,1.0,71.0,test,71.0,"[66, 71, 82]",494,green,green,poldrack-categorize,s006
stroop_2_181,congruent,1.0,71.0,test,71.0,"[66, 71, 82]",519,green,green,poldrack-categorize,s006
stroop_2_183,incongruent,1.0,82.0,test,82.0,"[66, 71, 82]",1314,red,green,poldrack-categorize,s006
stroop_2_185,incongruent,1.0,71.0,test,71.0,"[66, 71, 82]",1126,green,red,poldrack-categorize,s006
stroop_2_187,congruent,1.0,82.0,test,82.0,"[66, 71, 82]",658,red,red,poldrack-categorize,s006
stroop_2_189,congruent,1.0,71.0,test,71.0,"[66, 71, 82]",553,green,green,poldrack-categorize,s006
stroop_2_191,incongruent,1.0,82.0,test,82.0,"[66, 71, 82]",894,red,blue,poldrack-categorize,s006
stroop_2_193,congruent,1.0,71.0,test,71.0,"[66, 71, 82]",661,green,green,poldrack-categorize,s006
stroop_2_195,congruent,1.0,82.0,test,82.0,"[66, 71, 82]",565,red,red,poldrack-categorize,s006
stroop_2_197,incongruent,1.0,71.0,test,71.0,"[66, 71, 82]",1343,green,blue,poldrack-categorize,s006
stroop_2_199,incongruent,1.0,82.0,test,82.0,"[66, 71, 82]",1245,red,blue,poldrack-categorize,s006
stroop_2_201,congruent,1.0,66.0,test,66.0,"[66, 71, 82]",379,blue,blue,poldrack-categorize,s006
stroop_2_203,congruent,1.0,66.0,test,66.0,"[66, 71, 82]",518,blue,blue,poldrack-categorize,s006
stroop_2_205,congruent,1.0,82.0,test,82.0,"[66, 71, 82]",719,red,red,poldrack-categorize,s006
stroop_2_207,congruent,1.0,66.0,test,66.0,"[66, 71, 82]",833,blue,blue,poldrack-categorize,s006
stroop_2_209,congruent,1.0,82.0,test,82.0,"[66, 71, 82]",726,red,red,poldrack-categorize,s006
stroop_2_211,congruent,1.0,82.0,test,82.0,"[66, 71, 82]",709,red,red,poldrack-categorize,s006
stroop_2_213,congruent,1.0,82.0,test,82.0,"[66, 71, 82]",753,red,red,poldrack-categorize,s006
stroop_2_215,incongruent,1.0,66.0,test,66.0,"[66, 71, 82]",1107,blue,red,poldrack-categorize,s006
stroop_2_217,congruent,1.0,71.0,test,71.0,"[66, 71, 82]",785,green,green,poldrack-categorize,s006
stroop_2_219,congruent,1.0,66.0,test,66.0,"[66, 71, 82]",1342,blue,blue,poldrack-categorize,s006
stroop_2_221,congruent,1.0,66.0,test,66.0,"[66, 71, 82]",817,blue,blue,poldrack-categorize,s006
stroop_2_223,incongruent,1.0,82.0,test,82.0,"[66, 71, 82]",1082,red,blue,poldrack-categorize,s006
stroop_2_225,incongruent,1.0,66.0,test,66.0,"[66, 71, 82]",1076,blue,red,poldrack-categorize,s006
stroop_2_227,congruent,0.0,71.0,test,-1.0,"[66, 71, 82]",-1,green,green,poldrack-categorize,s006
stroop_2_229,congruent,1.0,71.0,test,71.0,"[66, 71, 82]",364,green,green,poldrack-categorize,s006
stroop_2_231,congruent,1.0,71.0,test,71.0,"[66, 71, 82]",481,green,green,poldrack-categorize,s006
stroop_2_233,incongruent,1.0,66.0,test,66.0,"[66, 71, 82]",833,blue,red,poldrack-categorize,s006
stroop_2_235,congruent,1.0,82.0,test,82.0,"[66, 71, 82]",652,red,red,poldrack-categorize,s006
stroop_2_237,congruent,1.0,82.0,test,82.0,"[66, 71, 82]",606,red,red,poldrack-categorize,s006
stroop_2_239,congruent,1.0,66.0,test,66.0,"[66, 71, 82]",724,blue,blue,poldrack-categorize,s006
stroop_2_241,congruent,1.0,82.0,test,82.0,"[66, 71, 82]",695,red,red,poldrack-categorize,s006
stroop_2_243,congruent,1.0,71.0,test,71.0,"[66, 71, 82]",828,green,green,poldrack-categorize,s006
stroop_3_4,incongruent,0.0,71.0,practice,-1.0,"[66, 71, 82]",-1,green,blue,poldrack-categorize,s007
stroop_3_6,incongruent,0.0,66.0,practice,82.0,"[66, 71, 82]",1069,blue,red,poldrack-categorize,s007
stroop_3_8,incongruent,1.0,66.0,practice,66.0,"[66, 71, 82]",1456,blue,green,poldrack-categorize,s007
stroop_3_10,congruent,1.0,71.0,practice,71.0,"[66, 71, 82]",975,green,green,poldrack-categorize,s007
stroop_3_12,incongruent,1.0,82.0,practice,82.0,"[66, 71, 82]",685,red,green,poldrack-categorize,s007
stroop_3_14,congruent,1.0,66.0,practice,66.0,"[66, 71, 82]",974,blue,blue,poldrack-categorize,s007
stroop_3_16,incongruent,1.0,82.0,practice,82.0,"[66, 71, 82]",960,red,blue,poldrack-categorize,s007
stroop_3_18,congruent,1.0,71.0,practice,71.0,"[66, 71, 82]",663,green,green,poldrack-categorize,s007
stroop_3_20,congruent,1.0,82.0,practice,82.0,"[66, 71, 82]",1112,red,red,poldrack-categorize,s007
stroop_3_22,congruent,1.0,66.0,practice,66.0,"[66, 71, 82]",790,blue,blue,poldrack-categorize,s007
stroop_3_24,incongruent,0.0,71.0,practice,82.0,"[66, 71, 82]",732,green,blue,poldrack-categorize,s007
stroop_3_26,congruent,1.0,71.0,practice,71.0,"[66, 71, 82]",915,green,green,poldrack-categorize,s007
stroop_3_28,congruent,1.0,82.0,practice,82.0,"[66, 71, 82]",776,red,red,poldrack-categorize,s007
stroop_3_30,incongruent,1.0,71.0,practice,71.0,"[66, 71, 82]",1298,green,red,poldrack-categorize,s007
stroop_3_32,incongruent,1.0,82.0,practice,82.0,"[66, 71, 82]",1026,red,blue,poldrack-categorize,s007
stroop_3_34,congruent,0.0,71.0,practice,82.0,"[66, 71, 82]",1043,green,green,poldrack-categorize,s007
stroop_3_36,congruent,1.0,66.0,practice,66.0,"[66, 71, 82]",1032,blue,blue,poldrack-categorize,s007
stroop_3_38,congruent,1.0,66.0,practice,66.0,"[66, 71, 82]",1201,blue,blue,poldrack-categorize,s007
stroop_3_40,congruent,1.0,82.0,practice,82.0,"[66, 71, 82]",901,red,red,poldrack-categorize,s007
stroop_3_42,incongruent,1.0,66.0,practice,66.0,"[66, 71, 82]",1158,blue,red,poldrack-categorize,s007
stroop_3_44,incongruent,1.0,66.0,practice,66.0,"[66, 71, 82]",885,blue,green,poldrack-categorize,s007
stroop_3_46,congruent,1.0,82.0,practice,82.0,"[66, 71, 82]",953,red,red,poldrack-categorize,s007
stroop_3_48,incongruent,1.0,82.0,practice,82.0,"[66, 71, 82]",930,red,green,poldrack-categorize,s007
stroop_3_50,incongruent,1.0,71.0,practice,71.0,"[66, 71, 82]",1318,green,red,poldrack-categorize,s007
stroop_3_53,congruent,1.0,66.0,test,66.0,"[66, 71, 82]",1484,blue,blue,poldrack-categorize,s007
stroop_3_55,incongruent,1.0,82.0,test,82.0,"[66, 71, 82]",905,red,green,poldrack-categorize,s007
stroop_3_57,incongruent,1.0,71.0,test,71.0,"[66, 71, 82]",1445,green,blue,poldrack-categorize,s007
stroop_3_59,incongruent,1.0,82.0,test,82.0,"[66, 71, 82]",1093,red,green,poldrack-categorize,s007
stroop_3_61,congruent,1.0,66.0,test,66.0,"[66, 71, 82]",1093,blue,blue,poldrack-categorize,s007
stroop_3_63,incongruent,1.0,66.0,test,66.0,"[66, 71, 82]",990,blue,green,poldrack-categorize,s007
stroop_3_65,incongruent,1.0,82.0,test,82.0,"[66, 71, 82]",1372,red,blue,poldrack-categorize,s007
stroop_3_67,congruent,1.0,71.0,test,71.0,"[66, 71, 82]",1328,green,green,poldrack-categorize,s007
stroop_3_69,congruent,1.0,71.0,test,71.0,"[66, 71, 82]",1044,green,green,poldrack-categorize,s007
stroop_3_71,incongruent,1.0,71.0,test,71.0,"[66, 71, 82]",882,green,red,poldrack-categorize,s007
stroop_3_73,incongruent,1.0,82.0,test,82.0,"[66, 71, 82]",896,red,green,poldrack-categorize,s007
stroop_3_75,incongruent,1.0,82.0,test,82.0,"[66, 71, 82]",912,red,green,poldrack-categorize,s007
stroop_3_77,incongruent,1.0,71.0,test,71.0,"[66, 71, 82]",1290,green,blue,poldrack-categorize,s007
stroop_3_79,incongruent,0.0,71.0,test,-1.0,"[66, 71, 82]",-1,green,red,poldrack-categorize,s007
stroop_3_81,congruent,1.0,71.0,test,71.0,"[66, 71, 82]",699,green,green,poldrack-categorize,s007
stroop_3_83,congruent,1.0,66.0,test,66.0,"[66, 71, 82]",827,blue,blue,poldrack-categorize,s007
stroop_3_85,incongruent,1.0,71.0,test,71.0,"[66, 71, 82]",1025,green,red,poldrack-categorize,s007
stroop_3_87,congruent,1.0,71.0,test,71.0,"[66, 71, 82]",996,green,green,poldrack-categorize,s007
stroop_3_89,incongruent,1.0,71.0,test,71.0,"[66, 71, 82]",991,green,blue,poldrack-categorize,s007
stroop_3_91,congruent,1.0,66.0,test,66.0,"[66, 71, 82]",802,blue,blue,poldrack-categorize,s007
stroop_3_93,congruent,1.0,66.0,test,66.0,"[66, 71, 82]",706,blue,blue,poldrack-categorize,s007
stroop_3_95,incongruent,0.0,71.0,test,-1.0,"[66, 71, 82]",-1,green,blue,poldrack-categorize,s007
stroop_3_97,incongruent,1.0,82.0,test,82.0,"[66, 71, 82]",821,red,blue,poldrack-categorize,s007
stroop_3_99,congruent,1.0,82.0,test,82.0,"[66, 71, 82]",922,red,red,poldrack-categorize,s007
stroop_3_101,congruent,1.0,82.0,test,82.0,"[66, 71, 82]",1179,red,red,poldrack-categorize,s007
stroop_3_103,congruent,1.0,82.0,test,82.0,"[66, 71, 82]",895,red,red,poldrack-categorize,s007
stroop_3_105,congruent,1.0,66.0,test,66.0,"[66, 71, 82]",1239,blue,blue,poldrack-categorize,s007
stroop_3_107,incongruent,1.0,66.0,test,66.0,"[66, 71, 82]",637,blue,green,poldrack-categorize,s007
stroop_3_109,incongruent,1.0,71.0,test,71.0,"[66, 71, 82]",883,green,red,poldrack-categorize,s007
stroop_3_111,congruent,1.0,82.0,test,82.0,"[66, 71, 82]",916,red,red,poldrack-categorize,s007
stroop_3_113,incongruent,1.0,82.0,test,82.0,"[66, 71, 82]",860,red,blue,poldrack-categorize,s007
stroop_3_115,congruent,1.0,71.0,test,71.0,"[66, 71, 82]",1104,green,green,poldrack-categorize,s007
stroop_3_117,congruent,1.0,82.0,test,82.0,"[66, 71, 82]",1015,red,red,poldrack-categorize,s007
stroop_3_119,congruent,1.0,82.0,test,82.0,"[66, 71, 82]",1178,red,red,poldrack-categorize,s007
stroop_3_121,incongruent,1.0,71.0,test,71.0,"[66, 71, 82]",1004,green,red,poldrack-categorize,s007
stroop_3_123,incongruent,0.0,66.0,test,-1.0,"[66, 71, 82]",-1,blue,green,poldrack-categorize,s007
stroop_3_125,congruent,1.0,82.0,test,82.0,"[66, 71, 82]",786,red,red,poldrack-categorize,s007
stroop_3_127,incongruent,0.0,71.0,test,66.0,"[66, 71, 82]",1121,green,red,poldrack-categorize,s007
stroop_3_129,incongruent,0.0,82.0,test,-1.0,"[66, 71, 82]",-1,red,blue,poldrack-categorize,s007
stroop_3_131,incongruent,1.0,82.0,test,82.0,"[66, 71, 82]",586,red,green,poldrack-categorize,s007
stroop_3_133,congruent,1.0,66.0,test,66.0,"[66, 71, 82]",851,blue,blue,poldrack-categorize,s007
stroop_3_135,incongruent,1.0,66.0,test,66.0,"[66, 71, 82]",825,blue,green,poldrack-categorize,s007
stroop_3_137,congruent,1.0,82.0,test,82.0,"[66, 71, 82]",749,red,red,poldrack-categorize,s007
stroop_3_139,incongruent,1.0,82.0,test,82.0,"[66, 71, 82]",975,red,blue,poldrack-categorize,s007
stroop_3_141,congruent,0.0,66.0,test,-1.0,"[66, 71, 82]",-1,blue,blue,poldrack-categorize,s007
stroop_3_143,congruent,1.0,66.0,test,66.0,"[66, 71, 82]",611,blue,blue,poldrack-categorize,s007
stroop_3_145,congruent,1.0,82.0,test,82.0,"[66, 71, 82]",1219,red,red,poldrack-categorize,s007
stroop_3_147,incongruent,1.0,66.0,test,66.0,"[66, 71, 82]",1124,blue,green,poldrack-categorize,s007
stroop_3_149,congruent,1.0,66.0,test,66.0,"[66, 71, 82]",750,blue,blue,poldrack-categorize,s007
stroop_3_151,congruent,1.0,66.0,test,66.0,"[66, 71, 82]",962,blue,blue,poldrack-categorize,s007
stroop_3_153,congruent,0.0,71.0,test,82.0,"[66, 71, 82]",1065,green,green,poldrack-categorize,s007
stroop_3_155,incongruent,1.0,82.0,test,82.0,"[66, 71, 82]",864,red,blue,poldrack-categorize,s007
stroop_3_157,incongruent,1.0,66.0,test,66.0,"[66, 71, 82]",1225,blue,green,poldrack-categorize,s007
stroop_3_159,incongruent,0.0,71.0,test,82.0,"[66, 71, 82]",1354,green,blue,poldrack-categorize,s007
stroop_3_161,congruent,1.0,82.0,test,82.0,"[66, 71, 82]",957,red,red,poldrack-categorize,s007
stroop_3_163,congruent,1.0,71.0,test,71.0,"[66, 71, 82]",708,green,green,poldrack-categorize,s007
stroop_3_165,congruent,1.0,82.0,test,82.0,"[66, 71, 82]",746,red,red,poldrack-categorize,s007
stroop_3_167,incongruent,0.0,66.0,test,71.0,"[66, 71, 82]",842,blue,red,poldrack-categorize,s007
stroop_3_169,congruent,1.0,66.0,test,66.0,"[66, 71, 82]",704,blue,blue,poldrack-categorize,s007
stroop_3_171,congruent,1.0,66.0,test,66.0,"[66, 71, 82]",790,blue,blue,poldrack-categorize,s007
stroop_3_173,incongruent,1.0,66.0,test,66.0,"[66, 71, 82]",830,blue,red,poldrack-categorize,s007
stroop_3_175,incongruent,1.0,66.0,test,66.0,"[66, 71, 82]",989,blue,red,poldrack-categorize,s007
stroop_3_177,congruent,1.0,82.0,test,82.0,"[66, 71, 82]",861,red,red,poldrack-categorize,s007
stroop_3_179,incongruent,1.0,66.0,test,66.0,"[66, 71, 82]",1027,blue,red,poldrack-categorize,s007
stroop_3_181,congruent,1.0,82.0,test,82.0,"[66, 71, 82]",878,red,red,poldrack-categorize,s007
stroop_3_183,incongruent,1.0,82.0,test,82.0,"[66, 71, 82]",932,red,green,poldrack-categorize,s007
stroop_3_185,congruent,0.0,71.0,test,82.0,"[66, 71, 82]",956,green,green,poldrack-categorize,s007
stroop_3_187,incongruent,1.0,66.0,test,66.0,"[66, 71, 82]",1278,blue,green,poldrack-categorize,s007
stroop_3_189,incongruent,0.0,71.0,test,-1.0,"[66, 71, 82]",-1,green,blue,poldrack-categorize,s007
stroop_3_191,congruent,1.0,71.0,test,71.0,"[66, 71, 82]",999,green,green,poldrack-categorize,s007
stroop_3_193,congruent,1.0,71.0,test,71.0,"[66, 71, 82]",879,green,green,poldrack-categorize,s007
stroop_3_195,incongruent,1.0,82.0,test,82.0,"[66, 71, 82]",1031,red,blue,poldrack-categorize,s007
stroop_3_197,incongruent,1.0,66.0,test,66.0,"[66, 71, 82]",1339,blue,red,poldrack-categorize,s007
stroop_3_199,incongruent,1.0,71.0,test,71.0,"[66, 71, 82]",1090,green,blue,poldrack-categorize,s007
stroop_3_201,congruent,1.0,66.0,test,66.0,"[66, 71, 82]",1418,blue,blue,poldrack-categorize,s007
stroop_3_203,incongruent,1.0,71.0,test,71.0,"[66, 71, 82]",1042,green,blue,poldrack-categorize,s007
stroop_3_205,congruent,1.0,71.0,test,71.0,"[66, 71, 82]",1018,green,green,poldrack-categorize,s007
stroop_3_207,incongruent,1.0,66.0,test,66.0,"[66, 71, 82]",1077,blue,red,poldrack-categorize,s007
stroop_3_209,congruent,1.0,71.0,test,71.0,"[66, 71, 82]",1053,green,green,poldrack-categorize,s007
stroop_3_211,incongruent,1.0,66.0,test,66.0,"[66, 71, 82]",847,blue,red,poldrack-categorize,s007
stroop_3_213,congruent,1.0,71.0,test,71.0,"[66, 71, 82]",805,green,green,poldrack-categorize,s007
stroop_3_215,incongruent,0.0,71.0,test,82.0,"[66, 71, 82]",1210,green,red,poldrack-categorize,s007
stroop_3_217,congruent,1.0,71.0,test,71.0,"[66, 71, 82]",1257,green,green,poldrack-categorize,s007
stroop_3_219,incongruent,1.0,82.0,test,82.0,"[66, 71, 82]",831,red,green,poldrack-categorize,s007
stroop_3_221,congruent,1.0,71.0,test,71.0,"[66, 71, 82]",1120,green,green,poldrack-categorize,s007
stroop_3_223,incongruent,1.0,82.0,test,82.0,"[66, 71, 82]",1249,red,blue,poldrack-categorize,s007
stroop_3_225,congruent,0.0,82.0,test,-1.0,"[66, 71, 82]",-1,red,red,poldrack-categorize,s007
stroop_3_227,congruent,1.0,66.0,test,66.0,"[66, 71, 82]",1182,blue,blue,poldrack-categorize,s007
stroop_3_229,congruent,1.0,82.0,test,82.0,"[66, 71, 82]",937,red,red,poldrack-categorize,s007
stroop_3_231,congruent,1.0,66.0,test,66.0,"[66, 71, 82]",873,blue,blue,poldrack-categorize,s007
stroop_3_233,congruent,1.0,82.0,test,82.0,"[66, 71, 82]",1147,red,red,poldrack-categorize,s007
stroop_3_235,incongruent,1.0,71.0,test,71.0,"[66, 71, 82]",1281,green,red,poldrack-categorize,s007
stroop_3_237,congruent,1.0,71.0,test,71.0,"[66, 71, 82]",884,green,green,poldrack-categorize,s007
stroop_3_239,incongruent,1.0,82.0,test,82.0,"[66, 71, 82]",1265,red,green,poldrack-categorize,s007
stroop_3_241,incongruent,1.0,66.0,test,66.0,"[66, 71, 82]",1047,blue,green,poldrack-categorize,s007
stroop_3_243,incongruent,1.0,66.0,test,66.0,"[66, 71, 82]",989,blue,red,poldrack-categorize,s007
stroop_4_4,incongruent,1.0,71.0,practice,71.0,"[66, 71, 82]",689,green,blue,poldrack-categorize,s009
stroop_4_6,congruent,1.0,82.0,practice,82.0,"[66, 71, 82]",493,red,red,poldrack-categorize,s009
stroop_4_8,incongruent,1.0,66.0,practice,66.0,"[66, 71, 82]",571,blue,red,poldrack-categorize,s009
stroop_4_10,congruent,1.0,82.0,practice,82.0,"[66, 71, 82]",608,red,red,poldrack-categorize,s009
stroop_4_12,incongruent,1.0,66.0,practice,66.0,"[66, 71, 82]",491,blue,green,poldrack-categorize,s009
stroop_4_14,congruent,1.0,71.0,practice,71.0,"[66, 71, 82]",524,green,green,poldrack-categorize,s009
stroop_4_16,congruent,0.0,71.0,practice,66.0,"[66, 71, 82]",652,green,green,poldrack-categorize,s009
stroop_4_18,congruent,1.0,71.0,practice,71.0,"[66, 71, 82]",558,green,green,poldrack-categorize,s009
stroop_4_20,incongruent,1.0,71.0,practice,71.0,"[66, 71, 82]",858,green,red,poldrack-categorize,s009
stroop_4_22,congruent,1.0,82.0,practice,82.0,"[66, 71, 82]",518,red,red,poldrack-categorize,s009
stroop_4_24,congruent,1.0,82.0,practice,82.0,"[66, 71, 82]",530,red,red,poldrack-categorize,s009
stroop_4_26,incongruent,1.0,82.0,practice,82.0,"[66, 71, 82]",676,red,blue,poldrack-categorize,s009
stroop_4_28,congruent,1.0,66.0,practice,66.0,"[66, 71, 82]",632,blue,blue,poldrack-categorize,s009
stroop_4_30,incongruent,1.0,82.0,practice,82.0,"[66, 71, 82]",809,red,green,poldrack-categorize,s009
stroop_4_32,incongruent,1.0,66.0,practice,66.0,"[66, 71, 82]",893,blue,green,poldrack-categorize,s009
stroop_4_34,incongruent,1.0,66.0,practice,66.0,"[66, 71, 82]",928,blue,red,poldrack-categorize,s009
stroop_4_36,incongruent,1.0,82.0,practice,82.0,"[66, 71, 82]",773,red,green,poldrack-categorize,s009
stroop_4_38,incongruent,1.0,82.0,practice,82.0,"[66, 71, 82]",823,red,blue,poldrack-categorize,s009
stroop_4_40,congruent,1.0,66.0,practice,66.0,"[66, 71, 82]",629,blue,blue,poldrack-categorize,s009
stroop_4_42,incongruent,1.0,71.0,practice,71.0,"[66, 71, 82]",886,green,blue,poldrack-categorize,s009
stroop_4_44,congruent,1.0,66.0,practice,66.0,"[66, 71, 82]",821,blue,blue,poldrack-categorize,s009
stroop_4_46,incongruent,1.0,71.0,practice,71.0,"[66, 71, 82]",859,green,red,poldrack-categorize,s009
stroop_4_48,congruent,1.0,66.0,practice,66.0,"[66, 71, 82]",687,blue,blue,poldrack-categorize,s009
stroop_4_50,congruent,1.0,71.0,practice,71.0,"[66, 71, 82]",705,green,green,poldrack-categorize,s009
stroop_4_53,congruent,1.0,66.0,test,66.0,"[66, 71, 82]",621,blue,blue,poldrack-categorize,s009
stroop_4_55,incongruent,1.0,66.0,test,66.0,"[66, 71, 82]",673,blue,green,poldrack-categorize,s009
stroop_4_57,incongruent,1.0,71.0,test,71.0,"[66, 71, 82]",915,green,red,poldrack-categorize,s009
stroop_4_59,incongruent,1.0,71.0,test,71.0,"[66, 71, 82]",714,green,blue,poldrack-categorize,s009
stroop_4_61,incongruent,1.0,82.0,test,82.0,"[66, 71, 82]",756,red,green,poldrack-categorize,s009
stroop_4_63,congruent,1.0,66.0,test,66.0,"[66, 71, 82]",612,blue,blue,poldrack-categorize,s009
stroop_4_65,congruent,1.0,71.0,test,71.0,"[66, 71, 82]",660,green,green,poldrack-categorize,s009
stroop_4_67,incongruent,1.0,66.0,test,66.0,"[66, 71, 82]",828,blue,red,poldrack-categorize,s009
stroop_4_69,congruent,1.0,82.0,test,82.0,"[66, 71, 82]",1210,red,red,poldrack-categorize,s009
stroop_4_71,incongruent,1.0,66.0,test,66.0,"[66, 71, 82]",743,blue,green,poldrack-categorize,s009
stroop_4_73,incongruent,1.0,82.0,test,82.0,"[66, 71, 82]",724,red,blue,poldrack-categorize,s009
stroop_4_75,congruent,1.0,66.0,test,66.0,"[66, 71, 82]",630,blue,blue,poldrack-categorize,s009
stroop_4_77,congruent,1.0,82.0,test,82.0,"[66, 71, 82]",694,red,red,poldrack-categorize,s009
stroop_4_79,congruent,1.0,82.0,test,82.0,"[66, 71, 82]",847,red,red,poldrack-categorize,s009
stroop_4_81,incongruent,1.0,66.0,test,66.0,"[66, 71, 82]",757,blue,red,poldrack-categorize,s009
stroop_4_83,incongruent,1.0,66.0,test,66.0,"[66, 71, 82]",1375,blue,red,poldrack-categorize,s009
stroop_4_85,incongruent,1.0,71.0,test,71.0,"[66, 71, 82]",975,green,red,poldrack-categorize,s009
stroop_4_87,congruent,1.0,71.0,test,71.0,"[66, 71, 82]",533,green,green,poldrack-categorize,s009
stroop_4_89,congruent,1.0,82.0,test,82.0,"[66, 71, 82]",972,red,red,poldrack-categorize,s009
stroop_4_91,congruent,1.0,66.0,test,66.0,"[66, 71, 82]",739,blue,blue,poldrack-categorize,s009
stroop_4_93,congruent,1.0,66.0,test,66.0,"[66, 71, 82]",772,blue,blue,poldrack-categorize,s009
stroop_4_95,congruent,1.0,71.0,test,71.0,"[66, 71, 82]",707,green,green,poldrack-categorize,s009
stroop_4_97,congruent,1.0,82.0,test,82.0,"[66, 71, 82]",983,red,red,poldrack-categorize,s009
stroop_4_99,incongruent,1.0,66.0,test,66.0,"[66, 71, 82]",599,blue,red,poldrack-categorize,s009
stroop_4_101,incongruent,1.0,82.0,test,82.0,"[66, 71, 82]",1051,red,green,poldrack-categorize,s009
stroop_4_103,congruent,1.0,82.0,test,82.0,"[66, 71, 82]",751,red,red,poldrack-categorize,s009
stroop_4_105,congruent,1.0,66.0,test,66.0,"[66, 71, 82]",921,blue,blue,poldrack-categorize,s009
stroop_4_107,congruent,1.0,71.0,test,71.0,"[66, 71, 82]",1260,green,green,poldrack-categorize,s009
stroop_4_109,incongruent,1.0,82.0,test,82.0,"[66, 71, 82]",1077,red,green,poldrack-categorize,s009
stroop_4_111,incongruent,1.0,71.0,test,71.0,"[66, 71, 82]",936,green,blue,poldrack-categorize,s009
stroop_4_113,congruent,1.0,66.0,test,66.0,"[66, 71, 82]",922,blue,blue,poldrack-categorize,s009
stroop_4_115,congruent,1.0,82.0,test,82.0,"[66, 71, 82]",849,red,red,poldrack-categorize,s009
stroop_4_117,congruent,1.0,82.0,test,82.0,"[66, 71, 82]",771,red,red,poldrack-categorize,s009
stroop_4_119,incongruent,1.0,82.0,test,82.0,"[66, 71, 82]",947,red,blue,poldrack-categorize,s009
stroop_4_121,congruent,1.0,66.0,test,66.0,"[66, 71, 82]",836,blue,blue,poldrack-categorize,s009
stroop_4_123,incongruent,1.0,71.0,test,71.0,"[66, 71, 82]",776,green,red,poldrack-categorize,s009
stroop_4_125,incongruent,1.0,66.0,test,66.0,"[66, 71, 82]",731,blue,red,poldrack-categorize,s009
stroop_4_127,congruent,1.0,66.0,test,66.0,"[66, 71, 82]",533,blue,blue,poldrack-categorize,s009
stroop_4_129,congruent,1.0,66.0,test,66.0,"[66, 71, 82]",539,blue,blue,poldrack-categorize,s009
stroop_4_131,congruent,1.0,66.0,test,66.0,"[66, 71, 82]",1369,blue,blue,poldrack-categorize,s009
stroop_4_133,congruent,1.0,66.0,test,66.0,"[66, 71, 82]",660,blue,blue,poldrack-categorize,s009
stroop_4_135,incongruent,1.0,71.0,test,71.0,"[66, 71, 82]",970,green,red,poldrack-categorize,s009
stroop_4_137,incongruent,1.0,82.0,test,82.0,"[66, 71, 82]",883,red,blue,poldrack-categorize,s009
stroop_4_139,congruent,1.0,71.0,test,71.0,"[66, 71, 82]",769,green,green,poldrack-categorize,s009
stroop_4_141,incongruent,1.0,71.0,test,71.0,"[66, 71, 82]",702,green,red,poldrack-categorize,s009
stroop_4_143,incongruent,1.0,71.0,test,71.0,"[66, 71, 82]",711,green,blue,poldrack-categorize,s009
stroop_4_145,congruent,1.0,82.0,test,82.0,"[66, 71, 82]",1210,red,red,poldrack-categorize,s009
stroop_4_147,incongruent,1.0,66.0,test,66.0,"[66, 71, 82]",751,blue,red,poldrack-categorize,s009
stroop_4_149,congruent,1.0,82.0,test,82.0,"[66, 71, 82]",680,red,red,poldrack-categorize,s009
stroop_4_151,incongruent,1.0,82.0,test,82.0,"[66, 71, 82]",611,red,blue,poldrack-categorize,s009
stroop_4_153,congruent,1.0,71.0,test,71.0,"[66, 71, 82]",803,green,green,poldrack-categorize,s009
stroop_4_155,congruent,0.0,82.0,test,-1.0,"[66, 71, 82]",-1,red,red,poldrack-categorize,s009
stroop_4_157,congruent,1.0,82.0,test,82.0,"[66, 71, 82]",692,red,red,poldrack-categorize,s009
stroop_4_159,incongruent,1.0,82.0,test,82.0,"[66, 71, 82]",1153,red,blue,poldrack-categorize,s009
stroop_4_161,incongruent,1.0,66.0,test,66.0,"[66, 71, 82]",902,blue,green,poldrack-categorize,s009
stroop_4_163,incongruent,0.0,66.0,test,-1.0,"[66, 71, 82]",-1,blue,green,poldrack-categorize,s009
stroop_4_165,congruent,1.0,82.0,test,82.0,"[66, 71, 82]",722,red,red,poldrack-categorize,s009
stroop_4_167,congruent,1.0,82.0,test,82.0,"[66, 71, 82]",713,red,red,poldrack-categorize,s009
stroop_4_169,congruent,1.0,66.0,test,66.0,"[66, 71, 82]",683,blue,blue,poldrack-categorize,s009
stroop_4_171,incongruent,1.0,66.0,test,66.0,"[66, 71, 82]",1211,blue,green,poldrack-categorize,s009
stroop_4_173,incongruent,1.0,66.0,test,66.0,"[66, 71, 82]",759,blue,green,poldrack-categorize,s009
stroop_4_175,incongruent,1.0,71.0,test,71.0,"[66, 71, 82]",946,green,blue,poldrack-categorize,s009
stroop_4_177,congruent,1.0,71.0,test,71.0,"[66, 71, 82]",656,green,green,poldrack-categorize,s009
stroop_4_179,congruent,1.0,71.0,test,71.0,"[66, 71, 82]",604,green,green,poldrack-categorize,s009
stroop_4_181,incongruent,1.0,71.0,test,71.0,"[66, 71, 82]",1081,green,red,poldrack-categorize,s009
stroop_4_183,incongruent,1.0,82.0,test,82.0,"[66, 71, 82]",1004,red,green,poldrack-categorize,s009
stroop_4_185,congruent,1.0,71.0,test,71.0,"[66, 71, 82]",731,green,green,poldrack-categorize,s009
stroop_4_187,congruent,1.0,71.0,test,71.0,"[66, 71, 82]",825,green,green,poldrack-categorize,s009
stroop_4_189,congruent,1.0,71.0,test,71.0,"[66, 71, 82]",468,green,green,poldrack-categorize,s009
stroop_4_191,incongruent,1.0,66.0,test,66.0,"[66, 71, 82]",1195,blue,red,poldrack-categorize,s009
stroop_4_193,incongruent,1.0,82.0,test,82.0,"[66, 71, 82]",857,red,green,poldrack-categorize,s009
stroop_4_195,incongruent,1.0,66.0,test,66.0,"[66, 71, 82]",822,blue,green,poldrack-categorize,s009
stroop_4_197,congruent,1.0,82.0,test,82.0,"[66, 71, 82]",929,red,red,poldrack-categorize,s009
stroop_4_199,incongruent,1.0,71.0,test,71.0,"[66, 71, 82]",854,green,red,poldrack-categorize,s009
stroop_4_201,congruent,1.0,71.0,test,71.0,"[66, 71, 82]",553,green,green,poldrack-categorize,s009
stroop_4_203,congruent,1.0,71.0,test,71.0,"[66, 71, 82]",544,green,green,poldrack-categorize,s009
stroop_4_205,incongruent,1.0,82.0,test,82.0,"[66, 71, 82]",1120,red,green,poldrack-categorize,s009
stroop_4_207,incongruent,1.0,71.0,test,71.0,"[66, 71, 82]",1011,green,blue,poldrack-categorize,s009
stroop_4_209,incongruent,1.0,82.0,test,82.0,"[66, 71, 82]",1261,red,green,poldrack-categorize,s009
stroop_4_211,incongruent,1.0,82.0,test,82.0,"[66, 71, 82]",766,red,blue,poldrack-categorize,s009
stroop_4_213,incongruent,1.0,82.0,test,82.0,"[66, 71, 82]",751,red,blue,poldrack-categorize,s009
stroop_4_215,incongruent,1.0,66.0,test,66.0,"[66, 71, 82]",722,blue,red,poldrack-categorize,s009
stroop_4_217,congruent,1.0,66.0,test,66.0,"[66, 71, 82]",699,blue,blue,poldrack-categorize,s009
stroop_4_219,incongruent,1.0,71.0,test,71.0,"[66, 71, 82]",565,green,blue,poldrack-categorize,s009
stroop_4_221,congruent,1.0,66.0,test,66.0,"[66, 71, 82]",907,blue,blue,poldrack-categorize,s009
stroop_4_223,incongruent,1.0,82.0,test,82.0,"[66, 71, 82]",545,red,blue,poldrack-categorize,s009
stroop_4_225,congruent,1.0,82.0,test,82.0,"[66, 71, 82]",572,red,red,poldrack-categorize,s009
stroop_4_227,congruent,1.0,71.0,test,71.0,"[66, 71, 82]",531,green,green,poldrack-categorize,s009
stroop_4_229,incongruent,1.0,71.0,test,71.0,"[66, 71, 82]",673,green,blue,poldrack-categorize,s009
stroop_4_231,congruent,1.0,66.0,test,66.0,"[66, 71, 82]",531,blue,blue,poldrack-categorize,s009
stroop_4_233,incongruent,1.0,66.0,test,66.0,"[66, 71, 82]",736,blue,green,poldrack-categorize,s009
stroop_4_235,incongruent,1.0,71.0,test,71.0,"[66, 71, 82]",876,green,red,poldrack-categorize,s009
stroop_4_237,congruent,1.0,71.0,test,71.0,"[66, 71, 82]",576,green,green,poldrack-categorize,s009
stroop_4_239,incongruent,1.0,71.0,test,71.0,"[66, 71, 82]",493,green,blue,poldrack-categorize,s009
stroop_4_241,incongruent,1.0,82.0,test,82.0,"[66, 71, 82]",703,red,green,poldrack-categorize,s009
stroop_4_243,congruent,1.0,71.0,test,71.0,"[66, 71, 82]",711,green,green,poldrack-categorize,s009
stroop_5_4,congruent,1.0,82.0,practice,82.0,"[66, 71, 82]",538,red,red,poldrack-categorize,s011
stroop_5_6,incongruent,1.0,82.0,practice,82.0,"[66, 71, 82]",802,red,blue,poldrack-categorize,s011
stroop_5_8,congruent,1.0,71.0,practice,71.0,"[66, 71, 82]",911,green,green,poldrack-categorize,s011
stroop_5_10,congruent,1.0,66.0,practice,66.0,"[66, 71, 82]",656,blue,blue,poldrack-categorize,s011
stroop_5_12,congruent,1.0,82.0,practice,82.0,"[66, 71, 82]",521,red,red,poldrack-categorize,s011
stroop_5_14,incongruent,1.0,71.0,practice,71.0,"[66, 71, 82]",943,green,blue,poldrack-categorize,s011
stroop_5_16,congruent,1.0,82.0,practice,82.0,"[66, 71, 82]",548,red,red,poldrack-categorize,s011
stroop_5_18,incongruent,1.0,71.0,practice,71.0,"[66, 71, 82]",783,green,red,poldrack-categorize,s011
stroop_5_20,incongruent,1.0,82.0,practice,82.0,"[66, 71, 82]",1061,red,green,poldrack-categorize,s011
stroop_5_22,incongruent,1.0,71.0,practice,71.0,"[66, 71, 82]",880,green,blue,poldrack-categorize,s011
stroop_5_24,congruent,1.0,66.0,practice,66.0,"[66, 71, 82]",604,blue,blue,poldrack-categorize,s011
stroop_5_26,congruent,1.0,82.0,practice,82.0,"[66, 71, 82]",560,red,red,poldrack-categorize,s011
stroop_5_28,congruent,1.0,71.0,practice,71.0,"[66, 71, 82]",627,green,green,poldrack-categorize,s011
stroop_5_30,incongruent,1.0,82.0,practice,82.0,"[66, 71, 82]",934,red,green,poldrack-categorize,s011
stroop_5_32,incongruent,1.0,66.0,practice,66.0,"[66, 71, 82]",677,blue,green,poldrack-categorize,s011
stroop_5_34,congruent,1.0,71.0,practice,71.0,"[66, 71, 82]",727,green,green,poldrack-categorize,s011
stroop_5_36,incongruent,1.0,66.0,practice,66.0,"[66, 71, 82]",719,blue,red,poldrack-categorize,s011
stroop_5_38,congruent,1.0,66.0,practice,66.0,"[66, 71, 82]",570,blue,blue,poldrack-categorize,s011
stroop_5_40,incongruent,1.0,82.0,practice,82.0,"[66, 71, 82]",620,red,blue,poldrack-categorize,s011
stroop_5_42,incongruent,1.0,71.0,practice,71.0,"[66, 71, 82]",479,green,red,poldrack-categorize,s011
stroop_5_44,incongruent,1.0,66.0,practice,66.0,"[66, 71, 82]",531,blue,red,poldrack-categorize,s011
stroop_5_46,congruent,1.0,66.0,practice,66.0,"[66, 71, 82]",506,blue,blue,poldrack-categorize,s011
stroop_5_48,congruent,1.0,71.0,practice,71.0,"[66, 71, 82]",587,green,green,poldrack-categorize,s011
stroop_5_50,incongruent,1.0,66.0,practice,66.0,"[66, 71, 82]",533,blue,green,poldrack-categorize,s011
stroop_5_53,congruent,1.0,82.0,test,82.0,"[66, 71, 82]",521,red,red,poldrack-categorize,s011
stroop_5_55,congruent,1.0,82.0,test,82.0,"[66, 71, 82]",589,red,red,poldrack-categorize,s011
stroop_5_57,congruent,1.0,66.0,test,66.0,"[66, 71, 82]",619,blue,blue,poldrack-categorize,s011
stroop_5_59,congruent,1.0,82.0,test,82.0,"[66, 71, 82]",776,red,red,poldrack-categorize,s011
stroop_5_61,congruent,1.0,66.0,test,66.0,"[66, 71, 82]",522,blue,blue,poldrack-categorize,s011
stroop_5_63,congruent,1.0,66.0,test,66.0,"[66, 71, 82]",492,blue,blue,poldrack-categorize,s011
stroop_5_65,congruent,1.0,71.0,test,71.0,"[66, 71, 82]",475,green,green,poldrack-categorize,s011
stroop_5_67,incongruent,1.0,82.0,test,82.0,"[66, 71, 82]",744,red,blue,poldrack-categorize,s011
stroop_5_69,congruent,1.0,71.0,test,71.0,"[66, 71, 82]",597,green,green,poldrack-categorize,s011
stroop_5_71,incongruent,1.0,71.0,test,71.0,"[66, 71, 82]",534,green,blue,poldrack-categorize,s011
stroop_5_73,incongruent,1.0,71.0,test,71.0,"[66, 71, 82]",462,green,red,poldrack-categorize,s011
stroop_5_75,congruent,1.0,82.0,test,82.0,"[66, 71, 82]",628,red,red,poldrack-categorize,s011
stroop_5_77,congruent,1.0,66.0,test,66.0,"[66, 71, 82]",477,blue,blue,poldrack-categorize,s011
stroop_5_79,congruent,1.0,71.0,test,71.0,"[66, 71, 82]",592,green,green,poldrack-categorize,s011
stroop_5_81,incongruent,1.0,82.0,test,82.0,"[66, 71, 82]",653,red,blue,poldrack-categorize,s011
stroop_5_83,congruent,1.0,82.0,test,82.0,"[66, 71, 82]",576,red,red,poldrack-categorize,s011
stroop_5_85,incongruent,1.0,66.0,test,66.0,"[66, 71, 82]",572,blue,red,poldrack-categorize,s011
stroop_5_87,congruent,1.0,66.0,test,66.0,"[66, 71, 82]",500,blue,blue,poldrack-categorize,s011
stroop_5_89,incongruent,1.0,66.0,test,66.0,"[66, 71, 82]",525,blue,green,poldrack-categorize,s011
stroop_5_91,congruent,1.0,71.0,test,71.0,"[66, 71, 82]",539,green,green,poldrack-categorize,s011
stroop_5_93,congruent,1.0,71.0,test,71.0,"[66, 71, 82]",554,green,green,poldrack-categorize,s011
stroop_5_95,incongruent,1.0,82.0,test,82.0,"[66, 71, 82]",644,red,green,poldrack-categorize,s011
stroop_5_97,incongruent,1.0,66.0,test,66.0,"[66, 71, 82]",667,blue,green,poldrack-categorize,s011
stroop_5_99,congruent,1.0,66.0,test,66.0,"[66, 71, 82]",617,blue,blue,poldrack-categorize,s011
stroop_5_101,incongruent,1.0,71.0,test,71.0,"[66, 71, 82]",906,green,blue,poldrack-categorize,s011
stroop_5_103,congruent,1.0,82.0,test,82.0,"[66, 71, 82]",800,red,red,poldrack-categorize,s011
stroop_5_105,incongruent,1.0,66.0,test,66.0,"[66, 71, 82]",639,blue,red,poldrack-categorize,s011
stroop_5_107,congruent,1.0,71.0,test,71.0,"[66, 71, 82]",478,green,green,poldrack-categorize,s011
stroop_5_109,congruent,1.0,66.0,test,66.0,"[66, 71, 82]",560,blue,blue,poldrack-categorize,s011
stroop_5_111,incongruent,1.0,71.0,test,71.0,"[66, 71, 82]",514,green,red,poldrack-categorize,s011
stroop_5_113,incongruent,0.0,71.0,test,66.0,"[66, 71, 82]",495,green,blue,poldrack-categorize,s011
stroop_5_115,congruent,1.0,71.0,test,71.0,"[66, 71, 82]",580,green,green,poldrack-categorize,s011
stroop_5_117,congruent,1.0,71.0,test,71.0,"[66, 71, 82]",734,green,green,poldrack-categorize,s011
stroop_5_119,congruent,1.0,82.0,test,82.0,"[66, 71, 82]",619,red,red,poldrack-categorize,s011
stroop_5_121,congruent,1.0,71.0,test,71.0,"[66, 71, 82]",568,green,green,poldrack-categorize,s011
stroop_5_123,incongruent,1.0,82.0,test,82.0,"[66, 71, 82]",857,red,green,poldrack-categorize,s011
stroop_5_125,congruent,1.0,82.0,test,82.0,"[66, 71, 82]",464,red,red,poldrack-categorize,s011
stroop_5_127,congruent,1.0,66.0,test,66.0,"[66, 71, 82]",506,blue,blue,poldrack-categorize,s011
stroop_5_129,congruent,1.0,82.0,test,82.0,"[66, 71, 82]",638,red,red,poldrack-categorize,s011
stroop_5_131,congruent,1.0,82.0,test,82.0,"[66, 71, 82]",446,red,red,poldrack-categorize,s011
stroop_5_133,incongruent,1.0,71.0,test,71.0,"[66, 71, 82]",613,green,red,poldrack-categorize,s011
stroop_5_135,incongruent,1.0,82.0,test,82.0,"[66, 71, 82]",754,red,green,poldrack-categorize,s011
stroop_5_137,incongruent,1.0,71.0,test,71.0,"[66, 71, 82]",971,green,red,poldrack-categorize,s011
stroop_5_139,congruent,1.0,66.0,test,66.0,"[66, 71, 82]",537,blue,blue,poldrack-categorize,s011
stroop_5_141,congruent,1.0,66.0,test,66.0,"[66, 71, 82]",464,blue,blue,poldrack-categorize,s011
stroop_5_143,incongruent,1.0,66.0,test,66.0,"[66, 71, 82]",831,blue,red,poldrack-categorize,s011
stroop_5_145,congruent,1.0,82.0,test,82.0,"[66, 71, 82]",664,red,red,poldrack-categorize,s011
stroop_5_147,incongruent,1.0,82.0,test,82.0,"[66, 71, 82]",874,red,blue,poldrack-categorize,s011
stroop_5_149,incongruent,1.0,71.0,test,71.0,"[66, 71, 82]",594,green,red,poldrack-categorize,s011
stroop_5_151,incongruent,1.0,82.0,test,82.0,"[66, 71, 82]",732,red,blue,poldrack-categorize,s011
stroop_5_153,incongruent,1.0,82.0,test,82.0,"[66, 71, 82]",749,red,green,poldrack-categorize,s011
stroop_5_155,incongruent,1.0,66.0,test,66.0,"[66, 71, 82]",688,blue,green,poldrack-categorize,s011
stroop_5_157,incongruent,1.0,66.0,test,66.0,"[66, 71, 82]",536,blue,green,poldrack-categorize,s011
stroop_5_159,congruent,1.0,66.0,test,66.0,"[66, 71, 82]",417,blue,blue,poldrack-categorize,s011
stroop_5_161,congruent,1.0,82.0,test,82.0,"[66, 71, 82]",598,red,red,poldrack-categorize,s011
stroop_5_163,congruent,1.0,82.0,test,82.0,"[66, 71, 82]",488,red,red,poldrack-categorize,s011
stroop_5_165,congruent,1.0,71.0,test,71.0,"[66, 71, 82]",577,green,green,poldrack-categorize,s011
stroop_5_167,incongruent,1.0,71.0,test,71.0,"[66, 71, 82]",420,green,blue,poldrack-categorize,s011
stroop_5_169,incongruent,1.0,82.0,test,82.0,"[66, 71, 82]",953,red,blue,poldrack-categorize,s011
stroop_5_171,congruent,1.0,66.0,test,66.0,"[66, 71, 82]",520,blue,blue,poldrack-categorize,s011
stroop_5_173,incongruent,1.0,66.0,test,66.0,"[66, 71, 82]",937,blue,red,poldrack-categorize,s011
stroop_5_175,incongruent,1.0,82.0,test,82.0,"[66, 71, 82]",474,red,blue,poldrack-categorize,s011
stroop_5_177,incongruent,1.0,71.0,test,71.0,"[66, 71, 82]",768,green,red,poldrack-categorize,s011
stroop_5_179,congruent,1.0,71.0,test,71.0,"[66, 71, 82]",647,green,green,poldrack-categorize,s011
stroop_5_181,congruent,1.0,82.0,test,82.0,"[66, 71, 82]",526,red,red,poldrack-categorize,s011
stroop_5_183,incongruent,1.0,71.0,test,71.0,"[66, 71, 82]",1098,green,blue,poldrack-categorize,s011
stroop_5_185,incongruent,1.0,66.0,test,66.0,"[66, 71, 82]",1020,blue,red,poldrack-categorize,s011
stroop_5_187,congruent,1.0,66.0,test,66.0,"[66, 71, 82]",543,blue,blue,poldrack-categorize,s011
stroop_5_189,incongruent,1.0,82.0,test,82.0,"[66, 71, 82]",798,red,blue,poldrack-categorize,s011
stroop_5_191,congruent,1.0,71.0,test,71.0,"[66, 71, 82]",564,green,green,poldrack-categorize,s011
stroop_5_193,incongruent,1.0,71.0,test,71.0,"[66, 71, 82]",730,green,blue,poldrack-categorize,s011
stroop_5_195,congruent,1.0,82.0,test,82.0,"[66, 71, 82]",562,red,red,poldrack-categorize,s011
stroop_5_197,incongruent,1.0,66.0,test,66.0,"[66, 71, 82]",855,blue,green,poldrack-categorize,s011
stroop_5_199,congruent,1.0,71.0,test,71.0,"[66, 71, 82]",617,green,green,poldrack-categorize,s011
stroop_5_201,incongruent,1.0,71.0,test,71.0,"[66, 71, 82]",483,green,blue,poldrack-categorize,s011
stroop_5_203,incongruent,1.0,66.0,test,66.0,"[66, 71, 82]",770,blue,red,poldrack-categorize,s011
stroop_5_205,incongruent,1.0,71.0,test,71.0,"[66, 71, 82]",849,green,red,poldrack-categorize,s011
stroop_5_207,incongruent,1.0,82.0,test,82.0,"[66, 71, 82]",699,red,green,poldrack-categorize,s011
stroop_5_209,congruent,1.0,71.0,test,71.0,"[66, 71, 82]",603,green,green,poldrack-categorize,s011
stroop_5_211,incongruent,1.0,66.0,test,66.0,"[66, 71, 82]",692,blue,green,poldrack-categorize,s011
stroop_5_213,incongruent,1.0,82.0,test,82.0,"[66, 71, 82]",855,red,green,poldrack-categorize,s011
stroop_5_215,incongruent,1.0,66.0,test,66.0,"[66, 71, 82]",1083,blue,red,poldrack-categorize,s011
stroop_5_217,incongruent,1.0,82.0,test,82.0,"[66, 71, 82]",896,red,green,poldrack-categorize,s011
stroop_5_219,incongruent,1.0,66.0,test,66.0,"[66, 71, 82]",670,blue,red,poldrack-categorize,s011
stroop_5_221,congruent,1.0,71.0,test,71.0,"[66, 71, 82]",527,green,green,poldrack-categorize,s011
stroop_5_223,congruent,1.0,66.0,test,66.0,"[66, 71, 82]",461,blue,blue,poldrack-categorize,s011
stroop_5_225,incongruent,1.0,66.0,test,66.0,"[66, 71, 82]",420,blue,green,poldrack-categorize,s011
stroop_5_227,incongruent,1.0,71.0,test,71.0,"[66, 71, 82]",667,green,blue,poldrack-categorize,s011
stroop_5_229,congruent,1.0,82.0,test,82.0,"[66, 71, 82]",507,red,red,poldrack-categorize,s011
stroop_5_231,congruent,1.0,71.0,test,71.0,"[66, 71, 82]",528,green,green,poldrack-categorize,s011
stroop_5_233,incongruent,1.0,82.0,test,82.0,"[66, 71, 82]",706,red,green,poldrack-categorize,s011
stroop_5_235,congruent,1.0,66.0,test,66.0,"[66, 71, 82]",525,blue,blue,poldrack-categorize,s011
stroop_5_237,incongruent,1.0,71.0,test,71.0,"[66, 71, 82]",671,green,red,poldrack-categorize,s011
stroop_5_239,incongruent,1.0,82.0,test,82.0,"[66, 71, 82]",570,red,blue,poldrack-categorize,s011
stroop_5_241,incongruent,1.0,66.0,test,66.0,"[66, 71, 82]",825,blue,green,poldrack-categorize,s011
stroop_5_243,congruent,1.0,66.0,test,66.0,"[66, 71, 82]",469,blue,blue,poldrack-categorize,s011
stroop_6_4,congruent,1.0,66.0,practice,66.0,"[66, 71, 82]",724,blue,blue,poldrack-categorize,s012
stroop_6_6,congruent,1.0,66.0,practice,66.0,"[66, 71, 82]",542,blue,blue,poldrack-categorize,s012
stroop_6_8,incongruent,1.0,82.0,practice,82.0,"[66, 71, 82]",1481,red,green,poldrack-categorize,s012
stroop_6_10,congruent,1.0,82.0,practice,82.0,"[66, 71, 82]",628,red,red,poldrack-categorize,s012
stroop_6_12,incongruent,1.0,66.0,practice,66.0,"[66, 71, 82]",719,blue,red,poldrack-categorize,s012
stroop_6_14,congruent,1.0,82.0,practice,82.0,"[66, 71, 82]",594,red,red,poldrack-categorize,s012
stroop_6_16,incongruent,1.0,71.0,practice,71.0,"[66, 71, 82]",845,green,red,poldrack-categorize,s012
stroop_6_18,incongruent,1.0,66.0,practice,66.0,"[66, 71, 82]",814,blue,green,poldrack-categorize,s012
stroop_6_20,incongruent,1.0,66.0,practice,66.0,"[66, 71, 82]",760,blue,red,poldrack-categorize,s012
stroop_6_22,congruent,1.0,71.0,practice,71.0,"[66, 71, 82]",835,green,green,poldrack-categorize,s012
stroop_6_24,incongruent,1.0,71.0,practice,71.0,"[66, 71, 82]",1070,green,blue,poldrack-categorize,s012
stroop_6_26,congruent,1.0,71.0,practice,71.0,"[66, 71, 82]",632,green,green,poldrack-categorize,s012
stroop_6_28,incongruent,1.0,66.0,practice,66.0,"[66, 71, 82]",779,blue,green,poldrack-categorize,s012
stroop_6_30,congruent,1.0,71.0,practice,71.0,"[66, 71, 82]",798,green,green,poldrack-categorize,s012
stroop_6_32,incongruent,1.0,71.0,practice,71.0,"[66, 71, 82]",841,green,blue,poldrack-categorize,s012
stroop_6_34,congruent,1.0,66.0,practice,66.0,"[66, 71, 82]",892,blue,blue,poldrack-categorize,s012
stroop_6_36,incongruent,1.0,82.0,practice,82.0,"[66, 71, 82]",687,red,blue,poldrack-categorize,s012
stroop_6_38,congruent,1.0,82.0,practice,82.0,"[66, 71, 82]",858,red,red,poldrack-categorize,s012
stroop_6_40,incongruent,1.0,82.0,practice,82.0,"[66, 71, 82]",757,red,blue,poldrack-categorize,s012
stroop_6_42,congruent,1.0,71.0,practice,71.0,"[66, 71, 82]",823,green,green,poldrack-categorize,s012
stroop_6_44,congruent,1.0,82.0,practice,82.0,"[66, 71, 82]",818,red,red,poldrack-categorize,s012
stroop_6_46,incongruent,1.0,71.0,practice,71.0,"[66, 71, 82]",789,green,red,poldrack-categorize,s012
stroop_6_48,congruent,1.0,66.0,practice,66.0,"[66, 71, 82]",712,blue,blue,poldrack-categorize,s012
stroop_6_50,incongruent,1.0,82.0,practice,82.0,"[66, 71, 82]",883,red,green,poldrack-categorize,s012
stroop_6_53,congruent,1.0,66.0,test,66.0,"[66, 71, 82]",773,blue,blue,poldrack-categorize,s012
stroop_6_55,congruent,1.0,82.0,test,82.0,"[66, 71, 82]",687,red,red,poldrack-categorize,s012
stroop_6_57,congruent,1.0,66.0,test,66.0,"[66, 71, 82]",810,blue,blue,poldrack-categorize,s012
stroop_6_59,congruent,1.0,66.0,test,66.0,"[66, 71, 82]",652,blue,blue,poldrack-categorize,s012
stroop_6_61,incongruent,1.0,82.0,test,82.0,"[66, 71, 82]",736,red,blue,poldrack-categorize,s012
stroop_6_63,incongruent,1.0,71.0,test,71.0,"[66, 71, 82]",906,green,blue,poldrack-categorize,s012
stroop_6_65,congruent,1.0,71.0,test,71.0,"[66, 71, 82]",709,green,green,poldrack-categorize,s012
stroop_6_67,incongruent,1.0,66.0,test,66.0,"[66, 71, 82]",1176,blue,red,poldrack-categorize,s012
stroop_6_69,congruent,1.0,71.0,test,71.0,"[66, 71, 82]",866,green,green,poldrack-categorize,s012
stroop_6_71,congruent,1.0,71.0,test,71.0,"[66, 71, 82]",580,green,green,poldrack-categorize,s012
stroop_6_73,congruent,1.0,66.0,test,66.0,"[66, 71, 82]",1023,blue,blue,poldrack-categorize,s012
stroop_6_75,incongruent,1.0,71.0,test,71.0,"[66, 71, 82]",1331,green,blue,poldrack-categorize,s012
stroop_6_77,incongruent,1.0,82.0,test,82.0,"[66, 71, 82]",686,red,green,poldrack-categorize,s012
stroop_6_79,congruent,1.0,71.0,test,71.0,"[66, 71, 82]",863,green,green,poldrack-categorize,s012
stroop_6_81,congruent,1.0,66.0,test,66.0,"[66, 71, 82]",674,blue,blue,poldrack-categorize,s012
stroop_6_83,incongruent,1.0,71.0,test,71.0,"[66, 71, 82]",797,green,red,poldrack-categorize,s012
stroop_6_85,incongruent,1.0,66.0,test,66.0,"[66, 71, 82]",760,blue,green,poldrack-categorize,s012
stroop_6_87,incongruent,1.0,66.0,test,66.0,"[66, 71, 82]",722,blue,red,poldrack-categorize,s012
stroop_6_89,congruent,1.0,66.0,test,66.0,"[66, 71, 82]",541,blue,blue,poldrack-categorize,s012
stroop_6_91,incongruent,1.0,82.0,test,82.0,"[66, 71, 82]",1176,red,blue,poldrack-categorize,s012
stroop_6_93,incongruent,1.0,66.0,test,66.0,"[66, 71, 82]",763,blue,green,poldrack-categorize,s012
stroop_6_95,incongruent,1.0,71.0,test,71.0,"[66, 71, 82]",1078,green,blue,poldrack-categorize,s012
stroop_6_97,incongruent,1.0,71.0,test,71.0,"[66, 71, 82]",657,green,blue,poldrack-categorize,s012
stroop_6_99,congruent,1.0,82.0,test,82.0,"[66, 71, 82]",828,red,red,poldrack-categorize,s012
stroop_6_101,congruent,1.0,71.0,test,71.0,"[66, 71, 82]",767,green,green,poldrack-categorize,s012
stroop_6_103,incongruent,1.0,71.0,test,71.0,"[66, 71, 82]",1106,green,blue,poldrack-categorize,s012
stroop_6_105,congruent,1.0,66.0,test,66.0,"[66, 71, 82]",1085,blue,blue,poldrack-categorize,s012
stroop_6_107,incongruent,1.0,82.0,test,82.0,"[66, 71, 82]",768,red,blue,poldrack-categorize,s012
stroop_6_109,congruent,1.0,71.0,test,71.0,"[66, 71, 82]",819,green,green,poldrack-categorize,s012
stroop_6_111,incongruent,1.0,82.0,test,82.0,"[66, 71, 82]",830,red,green,poldrack-categorize,s012
stroop_6_113,congruent,1.0,82.0,test,82.0,"[66, 71, 82]",689,red,red,poldrack-categorize,s012
stroop_6_115,incongruent,0.0,71.0,test,66.0,"[66, 71, 82]",1068,green,red,poldrack-categorize,s012
stroop_6_117,incongruent,1.0,66.0,test,66.0,"[66, 71, 82]",919,blue,green,poldrack-categorize,s012
stroop_6_119,incongruent,1.0,66.0,test,66.0,"[66, 71, 82]",825,blue,red,poldrack-categorize,s012
stroop_6_121,incongruent,1.0,82.0,test,82.0,"[66, 71, 82]",804,red,blue,poldrack-categorize,s012
stroop_6_123,congruent,1.0,66.0,test,66.0,"[66, 71, 82]",1143,blue,blue,poldrack-categorize,s012
stroop_6_125,congruent,1.0,82.0,test,82.0,"[66, 71, 82]",754,red,red,poldrack-categorize,s012
stroop_6_127,incongruent,1.0,66.0,test,66.0,"[66, 71, 82]",900,blue,red,poldrack-categorize,s012
stroop_6_129,congruent,1.0,71.0,test,71.0,"[66, 71, 82]",887,green,green,poldrack-categorize,s012
stroop_6_131,incongruent,1.0,71.0,test,71.0,"[66, 71, 82]",1064,green,blue,poldrack-categorize,s012
stroop_6_133,incongruent,1.0,82.0,test,82.0,"[66, 71, 82]",898,red,green,poldrack-categorize,s012
stroop_6_135,congruent,1.0,82.0,test,82.0,"[66, 71, 82]",749,red,red,poldrack-categorize,s012
stroop_6_137,congruent,1.0,66.0,test,66.0,"[66, 71, 82]",920,blue,blue,poldrack-categorize,s012
stroop_6_139,incongruent,1.0,82.0,test,82.0,"[66, 71, 82]",971,red,blue,poldrack-categorize,s012
stroop_6_141,incongruent,1.0,66.0,test,66.0,"[66, 71, 82]",1206,blue,red,poldrack-categorize,s012
stroop_6_143,incongruent,0.0,66.0,test,-1.0,"[66, 71, 82]",-1,blue,green,poldrack-categorize,s012
stroop_6_145,congruent,1.0,66.0,test,66.0,"[66, 71, 82]",548,blue,blue,poldrack-categorize,s012
stroop_6_147,incongruent,1.0,82.0,test,82.0,"[66, 71, 82]",647,red,green,poldrack-categorize,s012
stroop_6_149,congruent,1.0,71.0,test,71.0,"[66, 71, 82]",802,green,green,poldrack-categorize,s012
stroop_6_151,incongruent,1.0,82.0,test,82.0,"[66, 71, 82]",813,red,green,poldrack-categorize,s012
stroop_6_153,incongruent,1.0,71.0,test,71.0,"[66, 71, 82]",831,green,red,poldrack-categorize,s012
stroop_6_155,congruent,1.0,71.0,test,71.0,"[66, 71, 82]",691,green,green,poldrack-categorize,s012
stroop_6_157,congruent,1.0,66.0,test,66.0,"[66, 71, 82]",1150,blue,blue,poldrack-categorize,s012
stroop_6_159,incongruent,1.0,66.0,test,66.0,"[66, 71, 82]",897,blue,red,poldrack-categorize,s012
stroop_6_161,incongruent,1.0,71.0,test,71.0,"[66, 71, 82]",1004,green,red,poldrack-categorize,s012
stroop_6_163,congruent,1.0,66.0,test,66.0,"[66, 71, 82]",710,blue,blue,poldrack-categorize,s012
stroop_6_165,congruent,1.0,82.0,test,82.0,"[66, 71, 82]",977,red,red,poldrack-categorize,s012
stroop_6_167,congruent,1.0,71.0,test,71.0,"[66, 71, 82]",884,green,green,poldrack-categorize,s012
stroop_6_169,incongruent,1.0,71.0,test,71.0,"[66, 71, 82]",855,green,red,poldrack-categorize,s012
stroop_6_171,incongruent,1.0,66.0,test,66.0,"[66, 71, 82]",986,blue,red,poldrack-categorize,s012
stroop_6_173,congruent,1.0,66.0,test,66.0,"[66, 71, 82]",573,blue,blue,poldrack-categorize,s012
stroop_6_175,congruent,1.0,82.0,test,82.0,"[66, 71, 82]",1151,red,red,poldrack-categorize,s012
stroop_6_177,congruent,0.0,66.0,test,-1.0,"[66, 71, 82]",-1,blue,blue,poldrack-categorize,s012
stroop_6_179,incongruent,1.0,71.0,test,71.0,"[66, 71, 82]",1045,green,red,poldrack-categorize,s012
stroop_6_181,incongruent,1.0,66.0,test,66.0,"[66, 71, 82]",1064,blue,green,poldrack-categorize,s012
stroop_6_183,congruent,1.0,82.0,test,82.0,"[66, 71, 82]",755,red,red,poldrack-categorize,s012
stroop_6_185,congruent,1.0,71.0,test,71.0,"[66, 71, 82]",742,green,green,poldrack-categorize,s012
stroop_6_187,congruent,1.0,71.0,test,71.0,"[66, 71, 82]",665,green,green,poldrack-categorize,s012
stroop_6_189,congruent,1.0,71.0,test,71.0,"[66, 71, 82]",637,green,green,poldrack-categorize,s012
stroop_6_191,incongruent,1.0,82.0,test,82.0,"[66, 71, 82]",1151,red,blue,poldrack-categorize,s012
stroop_6_193,incongruent,1.0,71.0,test,71.0,"[66, 71, 82]",1154,green,blue,poldrack-categorize,s012
stroop_6_195,incongruent,1.0,71.0,test,71.0,"[66, 71, 82]",1044,green,red,poldrack-categorize,s012
stroop_6_197,incongruent,1.0,82.0,test,82.0,"[66, 71, 82]",927,red,blue,poldrack-categorize,s012
stroop_6_199,congruent,1.0,66.0,test,66.0,"[66, 71, 82]",626,blue,blue,poldrack-categorize,s012
stroop_6_201,incongruent,1.0,82.0,test,82.0,"[66, 71, 82]",805,red,green,poldrack-categorize,s012
stroop_6_203,congruent,1.0,82.0,test,82.0,"[66, 71, 82]",640,red,red,poldrack-categorize,s012
stroop_6_205,incongruent,1.0,66.0,test,66.0,"[66, 71, 82]",779,blue,green,poldrack-categorize,s012
stroop_6_207,congruent,1.0,82.0,test,82.0,"[66, 71, 82]",710,red,red,poldrack-categorize,s012
stroop_6_209,incongruent,1.0,82.0,test,82.0,"[66, 71, 82]",889,red,blue,poldrack-categorize,s012
stroop_6_211,incongruent,0.0,66.0,test,-1.0,"[66, 71, 82]",-1,blue,green,poldrack-categorize,s012
stroop_6_213,congruent,0.0,82.0,test,71.0,"[66, 71, 82]",679,red,red,poldrack-categorize,s012
stroop_6_215,congruent,1.0,82.0,test,82.0,"[66, 71, 82]",554,red,red,poldrack-categorize,s012
stroop_6_217,incongruent,1.0,82.0,test,82.0,"[66, 71, 82]",869,red,green,poldrack-categorize,s012
stroop_6_219,congruent,1.0,66.0,test,66.0,"[66, 71, 82]",600,blue,blue,poldrack-categorize,s012
stroop_6_221,congruent,1.0,71.0,test,71.0,"[66, 71, 82]",643,green,green,poldrack-categorize,s012
stroop_6_223,incongruent,1.0,71.0,test,71.0,"[66, 71, 82]",781,green,red,poldrack-categorize,s012
stroop_6_225,incongruent,1.0,82.0,test,82.0,"[66, 71, 82]",647,red,green,poldrack-categorize,s012
stroop_6_227,congruent,1.0,82.0,test,82.0,"[66, 71, 82]",435,red,red,poldrack-categorize,s012
stroop_6_229,incongruent,0.0,66.0,test,82.0,"[66, 71, 82]",590,blue,red,poldrack-categorize,s012
stroop_6_231,congruent,1.0,82.0,test,82.0,"[66, 71, 82]",609,red,red,poldrack-categorize,s012
stroop_6_233,incongruent,1.0,71.0,test,71.0,"[66, 71, 82]",1068,green,blue,poldrack-categorize,s012
stroop_6_235,congruent,1.0,82.0,test,82.0,"[66, 71, 82]",750,red,red,poldrack-categorize,s012
stroop_6_237,congruent,1.0,71.0,test,71.0,"[66, 71, 82]",745,green,green,poldrack-categorize,s012
stroop_6_239,congruent,1.0,82.0,test,82.0,"[66, 71, 82]",747,red,red,poldrack-categorize,s012
stroop_6_241,incongruent,1.0,66.0,test,66.0,"[66, 71, 82]",1079,blue,green,poldrack-categorize,s012
stroop_6_243,congruent,1.0,71.0,test,71.0,"[66, 71, 82]",865,green,green,poldrack-categorize,s012
stroop_7_4,congruent,1.0,71.0,practice,71.0,"[66, 71, 82]",912,green,green,poldrack-categorize,s017
stroop_7_6,congruent,1.0,66.0,practice,66.0,"[66, 71, 82]",894,blue,blue,poldrack-categorize,s017
stroop_7_8,congruent,1.0,66.0,practice,66.0,"[66, 71, 82]",654,blue,blue,poldrack-categorize,s017
stroop_7_10,congruent,1.0,82.0,practice,82.0,"[66, 71, 82]",397,red,red,poldrack-categorize,s017
stroop_7_12,congruent,1.0,71.0,practice,71.0,"[66, 71, 82]",398,green,green,poldrack-categorize,s017
stroop_7_14,congruent,0.0,82.0,practice,-1.0,"[66, 71, 82]",-1,red,red,poldrack-categorize,s017
stroop_7_16,incongruent,0.0,66.0,practice,82.0,"[66, 71, 82]",667,blue,red,poldrack-categorize,s017
stroop_7_18,incongruent,1.0,71.0,practice,71.0,"[66, 71, 82]",1225,green,blue,poldrack-categorize,s017
stroop_7_20,congruent,1.0,82.0,practice,82.0,"[66, 71, 82]",795,red,red,poldrack-categorize,s017
stroop_7_22,congruent,1.0,71.0,practice,71.0,"[66, 71, 82]",987,green,green,poldrack-categorize,s017
stroop_7_24,incongruent,1.0,66.0,practice,66.0,"[66, 71, 82]",905,blue,green,poldrack-categorize,s017
stroop_7_26,incongruent,1.0,71.0,practice,71.0,"[66, 71, 82]",873,green,blue,poldrack-categorize,s017
stroop_7_28,incongruent,1.0,82.0,practice,82.0,"[66, 71, 82]",610,red,blue,poldrack-categorize,s017
stroop_7_30,congruent,1.0,82.0,practice,82.0,"[66, 71, 82]",676,red,red,poldrack-categorize,s017
stroop_7_32,incongruent,1.0,71.0,practice,71.0,"[66, 71, 82]",980,green,red,poldrack-categorize,s017
stroop_7_34,incongruent,1.0,66.0,practice,66.0,"[66, 71, 82]",948,blue,green,poldrack-categorize,s017
stroop_7_36,congruent,1.0,66.0,practice,66.0,"[66, 71, 82]",733,blue,blue,poldrack-categorize,s017
stroop_7_38,incongruent,1.0,82.0,practice,82.0,"[66, 71, 82]",903,red,blue,poldrack-categorize,s017
stroop_7_40,incongruent,1.0,66.0,practice,66.0,"[66, 71, 82]",1288,blue,red,poldrack-categorize,s017
stroop_7_42,incongruent,1.0,71.0,practice,71.0,"[66, 71, 82]",1056,green,red,poldrack-categorize,s017
stroop_7_44,congruent,1.0,71.0,practice,71.0,"[66, 71, 82]",729,green,green,poldrack-categorize,s017
stroop_7_46,incongruent,1.0,82.0,practice,82.0,"[66, 71, 82]",691,red,green,poldrack-categorize,s017
stroop_7_48,congruent,1.0,66.0,practice,66.0,"[66, 71, 82]",595,blue,blue,poldrack-categorize,s017
stroop_7_50,incongruent,1.0,82.0,practice,82.0,"[66, 71, 82]",749,red,green,poldrack-categorize,s017
stroop_7_53,incongruent,1.0,71.0,test,71.0,"[66, 71, 82]",785,green,red,poldrack-categorize,s017
stroop_7_55,congruent,1.0,82.0,test,82.0,"[66, 71, 82]",570,red,red,poldrack-categorize,s017
stroop_7_57,incongruent,1.0,71.0,test,71.0,"[66, 71, 82]",907,green,red,poldrack-categorize,s017
stroop_7_59,incongruent,1.0,66.0,test,66.0,"[66, 71, 82]",964,blue,red,poldrack-categorize,s017
stroop_7_61,incongruent,1.0,82.0,test,82.0,"[66, 71, 82]",762,red,blue,poldrack-categorize,s017
stroop_7_63,congruent,1.0,66.0,test,66.0,"[66, 71, 82]",682,blue,blue,poldrack-categorize,s017
stroop_7_65,congruent,1.0,66.0,test,66.0,"[66, 71, 82]",546,blue,blue,poldrack-categorize,s017
stroop_7_67,incongruent,1.0,71.0,test,71.0,"[66, 71, 82]",787,green,red,poldrack-categorize,s017
stroop_7_69,incongruent,1.0,82.0,test,82.0,"[66, 71, 82]",811,red,blue,poldrack-categorize,s017
stroop_7_71,congruent,1.0,82.0,test,82.0,"[66, 71, 82]",692,red,red,poldrack-categorize,s017
stroop_7_73,congruent,1.0,71.0,test,71.0,"[66, 71, 82]",629,green,green,poldrack-categorize,s017
stroop_7_75,congruent,1.0,82.0,test,82.0,"[66, 71, 82]",533,red,red,poldrack-categorize,s017
stroop_7_77,congruent,1.0,71.0,test,71.0,"[66, 71, 82]",594,green,green,poldrack-categorize,s017
stroop_7_79,congruent,1.0,82.0,test,82.0,"[66, 71, 82]",591,red,red,poldrack-categorize,s017
stroop_7_81,congruent,1.0,71.0,test,71.0,"[66, 71, 82]",863,green,green,poldrack-categorize,s017
stroop_7_83,congruent,1.0,71.0,test,71.0,"[66, 71, 82]",556,green,green,poldrack-categorize,s017
stroop_7_85,incongruent,1.0,71.0,test,71.0,"[66, 71, 82]",1060,green,blue,poldrack-categorize,s017
stroop_7_87,congruent,1.0,71.0,test,71.0,"[66, 71, 82]",820,green,green,poldrack-categorize,s017
stroop_7_89,incongruent,1.0,82.0,test,82.0,"[66, 71, 82]",765,red,blue,poldrack-categorize,s017
stroop_7_91,congruent,1.0,82.0,test,82.0,"[66, 71, 82]",561,red,red,poldrack-categorize,s017
stroop_7_93,congruent,1.0,71.0,test,71.0,"[66, 71, 82]",561,green,green,poldrack-categorize,s017
stroop_7_95,incongruent,1.0,71.0,test,71.0,"[66, 71, 82]",1020,green,blue,poldrack-categorize,s017
stroop_7_97,congruent,1.0,82.0,test,82.0,"[66, 71, 82]",588,red,red,poldrack-categorize,s017
stroop_7_99,incongruent,0.0,82.0,test,71.0,"[66, 71, 82]",1021,red,blue,poldrack-categorize,s017
stroop_7_101,incongruent,1.0,66.0,test,66.0,"[66, 71, 82]",830,blue,red,poldrack-categorize,s017
stroop_7_103,incongruent,1.0,71.0,test,71.0,"[66, 71, 82]",884,green,blue,poldrack-categorize,s017
stroop_7_105,incongruent,1.0,82.0,test,82.0,"[66, 71, 82]",829,red,blue,poldrack-categorize,s017
stroop_7_107,congruent,1.0,71.0,test,71.0,"[66, 71, 82]",598,green,green,poldrack-categorize,s017
stroop_7_109,incongruent,1.0,66.0,test,66.0,"[66, 71, 82]",719,blue,green,poldrack-categorize,s017
stroop_7_111,incongruent,1.0,82.0,test,82.0,"[66, 71, 82]",937,red,green,poldrack-categorize,s017
stroop_7_113,incongruent,1.0,71.0,test,71.0,"[66, 71, 82]",888,green,red,poldrack-categorize,s017
stroop_7_115,congruent,1.0,66.0,test,66.0,"[66, 71, 82]",762,blue,blue,poldrack-categorize,s017
stroop_7_117,congruent,1.0,82.0,test,82.0,"[66, 71, 82]",740,red,red,poldrack-categorize,s017
stroop_7_119,congruent,1.0,82.0,test,82.0,"[66, 71, 82]",548,red,red,poldrack-categorize,s017
stroop_7_121,incongruent,1.0,66.0,test,66.0,"[66, 71, 82]",766,blue,red,poldrack-categorize,s017
stroop_7_123,incongruent,1.0,82.0,test,82.0,"[66, 71, 82]",829,red,blue,poldrack-categorize,s017
stroop_7_125,incongruent,1.0,82.0,test,82.0,"[66, 71, 82]",808,red,green,poldrack-categorize,s017
stroop_7_127,incongruent,1.0,66.0,test,66.0,"[66, 71, 82]",742,blue,red,poldrack-categorize,s017
stroop_7_129,incongruent,1.0,66.0,test,66.0,"[66, 71, 82]",1078,blue,green,poldrack-categorize,s017
stroop_7_131,congruent,1.0,66.0,test,66.0,"[66, 71, 82]",685,blue,blue,poldrack-categorize,s017
stroop_7_133,incongruent,1.0,82.0,test,82.0,"[66, 71, 82]",492,red,green,poldrack-categorize,s017
stroop_7_135,incongruent,1.0,71.0,test,71.0,"[66, 71, 82]",669,green,blue,poldrack-categorize,s017
stroop_7_137,incongruent,1.0,66.0,test,66.0,"[66, 71, 82]",1060,blue,green,poldrack-categorize,s017
stroop_7_139,congruent,1.0,66.0,test,66.0,"[66, 71, 82]",693,blue,blue,poldrack-categorize,s017
stroop_7_141,congruent,1.0,71.0,test,71.0,"[66, 71, 82]",613,green,green,poldrack-categorize,s017
stroop_7_143,incongruent,0.0,66.0,test,-1.0,"[66, 71, 82]",-1,blue,green,poldrack-categorize,s017
stroop_7_145,congruent,1.0,66.0,test,66.0,"[66, 71, 82]",523,blue,blue,poldrack-categorize,s017
stroop_7_147,congruent,1.0,71.0,test,71.0,"[66, 71, 82]",607,green,green,poldrack-categorize,s017
stroop_7_149,incongruent,1.0,66.0,test,66.0,"[66, 71, 82]",998,blue,green,poldrack-categorize,s017
stroop_7_151,congruent,1.0,66.0,test,66.0,"[66, 71, 82]",790,blue,blue,poldrack-categorize,s017
stroop_7_153,incongruent,1.0,71.0,test,71.0,"[66, 71, 82]",1008,green,red,poldrack-categorize,s017
stroop_7_155,incongruent,1.0,71.0,test,71.0,"[66, 71, 82]",793,green,blue,poldrack-categorize,s017
stroop_7_157,congruent,1.0,71.0,test,71.0,"[66, 71, 82]",1187,green,green,poldrack-categorize,s017
stroop_7_159,incongruent,1.0,66.0,test,66.0,"[66, 71, 82]",1051,blue,red,poldrack-categorize,s017
stroop_7_161,congruent,0.0,71.0,test,66.0,"[66, 71, 82]",795,green,green,poldrack-categorize,s017
stroop_7_163,incongruent,1.0,71.0,test,71.0,"[66, 71, 82]",1018,green,blue,poldrack-categorize,s017
stroop_7_165,incongruent,1.0,66.0,test,66.0,"[66, 71, 82]",948,blue,red,poldrack-categorize,s017
stroop_7_167,congruent,1.0,82.0,test,82.0,"[66, 71, 82]",653,red,red,poldrack-categorize,s017
stroop_7_169,incongruent,1.0,71.0,test,71.0,"[66, 71, 82]",870,green,red,poldrack-categorize,s017
stroop_7_171,congruent,1.0,82.0,test,82.0,"[66, 71, 82]",1001,red,red,poldrack-categorize,s017
stroop_7_173,congruent,1.0,82.0,test,82.0,"[66, 71, 82]",662,red,red,poldrack-categorize,s017
stroop_7_175,incongruent,1.0,71.0,test,71.0,"[66, 71, 82]",841,green,red,poldrack-categorize,s017
stroop_7_177,incongruent,1.0,66.0,test,66.0,"[66, 71, 82]",849,blue,green,poldrack-categorize,s017
stroop_7_179,congruent,1.0,66.0,test,66.0,"[66, 71, 82]",538,blue,blue,poldrack-categorize,s017
stroop_7_181,incongruent,1.0,82.0,test,82.0,"[66, 71, 82]",940,red,green,poldrack-categorize,s017
stroop_7_183,incongruent,1.0,66.0,test,66.0,"[66, 71, 82]",937,blue,red,poldrack-categorize,s017
stroop_7_185,congruent,1.0,82.0,test,82.0,"[66, 71, 82]",839,red,red,poldrack-categorize,s017
stroop_7_187,congruent,1.0,82.0,test,82.0,"[66, 71, 82]",530,red,red,poldrack-categorize,s017
stroop_7_189,congruent,1.0,66.0,test,66.0,"[66, 71, 82]",636,blue,blue,poldrack-categorize,s017
stroop_7_191,congruent,1.0,66.0,test,66.0,"[66, 71, 82]",733,blue,blue,poldrack-categorize,s017
stroop_7_193,incongruent,1.0,71.0,test,71.0,"[66, 71, 82]",1173,green,blue,poldrack-categorize,s017
stroop_7_195,congruent,1.0,66.0,test,66.0,"[66, 71, 82]",741,blue,blue,poldrack-categorize,s017
stroop_7_197,incongruent,1.0,82.0,test,82.0,"[66, 71, 82]",525,red,green,poldrack-categorize,s017
stroop_7_199,incongruent,1.0,82.0,test,82.0,"[66, 71, 82]",567,red,blue,poldrack-categorize,s017
stroop_7_201,congruent,1.0,66.0,test,66.0,"[66, 71, 82]",607,blue,blue,poldrack-categorize,s017
stroop_7_203,incongruent,1.0,82.0,test,82.0,"[66, 71, 82]",790,red,green,poldrack-categorize,s017
stroop_7_205,congruent,1.0,82.0,test,82.0,"[66, 71, 82]",709,red,red,poldrack-categorize,s017
stroop_7_207,congruent,1.0,82.0,test,82.0,"[66, 71, 82]",559,red,red,poldrack-categorize,s017
stroop_7_209,congruent,1.0,71.0,test,71.0,"[66, 71, 82]",719,green,green,poldrack-categorize,s017
stroop_7_211,congruent,1.0,66.0,test,66.0,"[66, 71, 82]",585,blue,blue,poldrack-categorize,s017
stroop_7_213,congruent,1.0,82.0,test,82.0,"[66, 71, 82]",634,red,red,poldrack-categorize,s017
stroop_7_215,congruent,1.0,71.0,test,71.0,"[66, 71, 82]",645,green,green,poldrack-categorize,s017
stroop_7_217,incongruent,1.0,66.0,test,66.0,"[66, 71, 82]",1440,blue,green,poldrack-categorize,s017
stroop_7_219,congruent,1.0,66.0,test,66.0,"[66, 71, 82]",555,blue,blue,poldrack-categorize,s017
stroop_7_221,congruent,1.0,66.0,test,66.0,"[66, 71, 82]",514,blue,blue,poldrack-categorize,s017
stroop_7_223,congruent,1.0,71.0,test,71.0,"[66, 71, 82]",636,green,green,poldrack-categorize,s017
stroop_7_225,incongruent,1.0,66.0,test,66.0,"[66, 71, 82]",915,blue,red,poldrack-categorize,s017
stroop_7_227,congruent,1.0,66.0,test,66.0,"[66, 71, 82]",642,blue,blue,poldrack-categorize,s017
stroop_7_229,incongruent,1.0,71.0,test,71.0,"[66, 71, 82]",779,green,blue,poldrack-categorize,s017
stroop_7_231,incongruent,1.0,82.0,test,82.0,"[66, 71, 82]",1220,red,green,poldrack-categorize,s017
stroop_7_233,incongruent,1.0,82.0,test,82.0,"[66, 71, 82]",1128,red,green,poldrack-categorize,s017
stroop_7_235,incongruent,1.0,66.0,test,66.0,"[66, 71, 82]",699,blue,green,poldrack-categorize,s017
stroop_7_237,incongruent,1.0,82.0,test,82.0,"[66, 71, 82]",793,red,blue,poldrack-categorize,s017
stroop_7_239,congruent,1.0,71.0,test,71.0,"[66, 71, 82]",657,green,green,poldrack-categorize,s017
stroop_7_241,incongruent,1.0,71.0,test,71.0,"[66, 71, 82]",842,green,red,poldrack-categorize,s017
stroop_7_243,congruent,1.0,71.0,test,71.0,"[66, 71, 82]",533,green,green,poldrack-categorize,s017
stroop_8_4,congruent,1.0,71.0,practice,71.0,"[66, 71, 82]",1123,green,green,poldrack-categorize,s020
stroop_8_6,congruent,1.0,66.0,practice,66.0,"[66, 71, 82]",892,blue,blue,poldrack-categorize,s020
stroop_8_8,congruent,1.0,82.0,practice,82.0,"[66, 71, 82]",415,red,red,poldrack-categorize,s020
stroop_8_10,incongruent,0.0,66.0,practice,71.0,"[66, 71, 82]",836,blue,red,poldrack-categorize,s020
stroop_8_12,congruent,1.0,71.0,practice,71.0,"[66, 71, 82]",716,green,green,poldrack-categorize,s020
stroop_8_14,incongruent,0.0,71.0,practice,66.0,"[66, 71, 82]",1175,green,blue,poldrack-categorize,s020
stroop_8_16,incongruent,1.0,66.0,practice,66.0,"[66, 71, 82]",850,blue,green,poldrack-categorize,s020
stroop_8_18,incongruent,1.0,71.0,practice,71.0,"[66, 71, 82]",1090,green,blue,poldrack-categorize,s020
stroop_8_20,incongruent,1.0,82.0,practice,82.0,"[66, 71, 82]",1134,red,blue,poldrack-categorize,s020
stroop_8_22,incongruent,1.0,66.0,practice,66.0,"[66, 71, 82]",1446,blue,red,poldrack-categorize,s020
stroop_8_24,congruent,1.0,71.0,practice,71.0,"[66, 71, 82]",1286,green,green,poldrack-categorize,s020
stroop_8_26,incongruent,1.0,66.0,practice,66.0,"[66, 71, 82]",1263,blue,green,poldrack-categorize,s020
stroop_8_28,congruent,1.0,82.0,practice,82.0,"[66, 71, 82]",897,red,red,poldrack-categorize,s020
stroop_8_30,incongruent,0.0,82.0,practice,71.0,"[66, 71, 82]",1411,red,green,poldrack-categorize,s020
stroop_8_32,incongruent,0.0,71.0,practice,-1.0,"[66, 71, 82]",-1,green,red,poldrack-categorize,s020
stroop_8_34,congruent,1.0,66.0,practice,66.0,"[66, 71, 82]",1025,blue,blue,poldrack-categorize,s020
stroop_8_36,congruent,1.0,66.0,practice,66.0,"[66, 71, 82]",457,blue,blue,poldrack-categorize,s020
stroop_8_38,incongruent,1.0,82.0,practice,82.0,"[66, 71, 82]",985,red,green,poldrack-categorize,s020
stroop_8_40,incongruent,1.0,71.0,practice,71.0,"[66, 71, 82]",921,green,red,poldrack-categorize,s020
stroop_8_42,congruent,1.0,82.0,practice,82.0,"[66, 71, 82]",968,red,red,poldrack-categorize,s020
stroop_8_44,incongruent,0.0,82.0,practice,-1.0,"[66, 71, 82]",-1,red,blue,poldrack-categorize,s020
stroop_8_46,congruent,1.0,66.0,practice,66.0,"[66, 71, 82]",592,blue,blue,poldrack-categorize,s020
stroop_8_48,congruent,1.0,82.0,practice,82.0,"[66, 71, 82]",931,red,red,poldrack-categorize,s020
stroop_8_50,congruent,1.0,71.0,practice,71.0,"[66, 71, 82]",868,green,green,poldrack-categorize,s020
stroop_8_53,congruent,1.0,82.0,test,82.0,"[66, 71, 82]",669,red,red,poldrack-categorize,s020
stroop_8_55,congruent,1.0,71.0,test,71.0,"[66, 71, 82]",588,green,green,poldrack-categorize,s020
stroop_8_57,congruent,1.0,66.0,test,66.0,"[66, 71, 82]",344,blue,blue,poldrack-categorize,s020
stroop_8_59,incongruent,0.0,66.0,test,71.0,"[66, 71, 82]",751,blue,green,poldrack-categorize,s020
stroop_8_61,incongruent,1.0,71.0,test,71.0,"[66, 71, 82]",1073,green,red,poldrack-categorize,s020
stroop_8_63,congruent,1.0,82.0,test,82.0,"[66, 71, 82]",609,red,red,poldrack-categorize,s020
stroop_8_65,congruent,1.0,66.0,test,66.0,"[66, 71, 82]",872,blue,blue,poldrack-categorize,s020
stroop_8_67,congruent,1.0,71.0,test,71.0,"[66, 71, 82]",1249,green,green,poldrack-categorize,s020
stroop_8_69,congruent,1.0,66.0,test,66.0,"[66, 71, 82]",766,blue,blue,poldrack-categorize,s020
stroop_8_71,congruent,1.0,66.0,test,66.0,"[66, 71, 82]",556,blue,blue,poldrack-categorize,s020
stroop_8_73,congruent,1.0,66.0,test,66.0,"[66, 71, 82]",499,blue,blue,poldrack-categorize,s020
stroop_8_75,congruent,1.0,66.0,test,66.0,"[66, 71, 82]",458,blue,blue,poldrack-categorize,s020
stroop_8_77,incongruent,1.0,71.0,test,71.0,"[66, 71, 82]",630,green,blue,poldrack-categorize,s020
stroop_8_79,incongruent,1.0,82.0,test,82.0,"[66, 71, 82]",665,red,blue,poldrack-categorize,s020
stroop_8_81,incongruent,1.0,66.0,test,66.0,"[66, 71, 82]",877,blue,red,poldrack-categorize,s020
stroop_8_83,incongruent,0.0,82.0,test,-1.0,"[66, 71, 82]",-1,red,blue,poldrack-categorize,s020
stroop_8_85,incongruent,0.0,82.0,test,71.0,"[66, 71, 82]",870,red,blue,poldrack-categorize,s020
stroop_8_87,congruent,1.0,71.0,test,71.0,"[66, 71, 82]",649,green,green,poldrack-categorize,s020
stroop_8_89,congruent,1.0,66.0,test,66.0,"[66, 71, 82]",892,blue,blue,poldrack-categorize,s020
stroop_8_91,congruent,0.0,82.0,test,71.0,"[66, 71, 82]",626,red,red,poldrack-categorize,s020
stroop_8_93,incongruent,1.0,82.0,test,82.0,"[66, 71, 82]",653,red,blue,poldrack-categorize,s020
stroop_8_95,congruent,1.0,66.0,test,66.0,"[66, 71, 82]",574,blue,blue,poldrack-categorize,s020
stroop_8_97,incongruent,1.0,66.0,test,66.0,"[66, 71, 82]",720,blue,red,poldrack-categorize,s020
stroop_8_99,incongruent,1.0,66.0,test,66.0,"[66, 71, 82]",712,blue,green,poldrack-categorize,s020
stroop_8_101,congruent,1.0,82.0,test,82.0,"[66, 71, 82]",683,red,red,poldrack-categorize,s020
stroop_8_103,incongruent,1.0,71.0,test,71.0,"[66, 71, 82]",761,green,red,poldrack-categorize,s020
stroop_8_105,congruent,1.0,66.0,test,66.0,"[66, 71, 82]",541,blue,blue,poldrack-categorize,s020
stroop_8_107,incongruent,1.0,66.0,test,66.0,"[66, 71, 82]",493,blue,green,poldrack-categorize,s020
stroop_8_109,incongruent,1.0,66.0,test,66.0,"[66, 71, 82]",634,blue,red,poldrack-categorize,s020
stroop_8_111,incongruent,1.0,71.0,test,71.0,"[66, 71, 82]",780,green,red,poldrack-categorize,s020
stroop_8_113,congruent,1.0,71.0,test,71.0,"[66, 71, 82]",817,green,green,poldrack-categorize,s020
stroop_8_115,congruent,1.0,82.0,test,82.0,"[66, 71, 82]",641,red,red,poldrack-categorize,s020
stroop_8_117,incongruent,1.0,82.0,test,82.0,"[66, 71, 82]",858,red,green,poldrack-categorize,s020
stroop_8_119,incongruent,1.0,71.0,test,71.0,"[66, 71, 82]",1095,green,blue,poldrack-categorize,s020
stroop_8_121,congruent,1.0,71.0,test,71.0,"[66, 71, 82]",553,green,green,poldrack-categorize,s020
stroop_8_123,congruent,1.0,66.0,test,66.0,"[66, 71, 82]",715,blue,blue,poldrack-categorize,s020
stroop_8_125,incongruent,1.0,71.0,test,71.0,"[66, 71, 82]",692,green,red,poldrack-categorize,s020
stroop_8_127,congruent,1.0,82.0,test,82.0,"[66, 71, 82]",807,red,red,poldrack-categorize,s020
stroop_8_129,congruent,0.0,71.0,test,82.0,"[66, 71, 82]",503,green,green,poldrack-categorize,s020
stroop_8_131,congruent,1.0,66.0,test,66.0,"[66, 71, 82]",547,blue,blue,poldrack-categorize,s020
